"","Event_Index","UTC_Timestamp","UTC_Date","Local_Timestamp","Local_Timezone","Local_Date","Experiment_ID","Experiment_Version","Tree_Node_Key","Repeat_Key","Schedule_ID","Participant_Public_ID","Participant_Private_ID","Participant_Starting_Group","Participant_Status","Participant_Completion_Code","Participant_External_Session_ID","Participant_Device_Type","Participant_Device","Participant_OS","Participant_Browser","Participant_Monitor_Size","Participant_Viewport_Size","Checkpoint","Task_Name","Task_Version","Spreadsheet","Spreadsheet_Name","Spreadsheet_Row","Trial_Number","Screen_Number","Screen_Name","Zone_Name","Zone_Type","Reaction_Time","Reaction_Onset","Response_Type","Response","Attempt","Correct","Incorrect","Dishonest","X_Coordinate","Y_Coordinate","Timed_Out","randomise_blocks","randomise_trials","display","ANSWER","picture1","picture2","picture3","picture4","picture5","picture6","picture7","Hint","wideo1","wideo2","Picture","Hint_picture1","Hint_picture2","Doors_picture","answear","id"
"1","1","1654622184761","07/06/2022 17:16:24","1654622184670","1","07/06/2022 18:16:24","86605","12","task-36eo",NA,"22344290","ucjf5it7","6586190",NA,"complete",NA,NA,"computer","Desktop or Laptop","Mac OS 10.15.7","Safari 15.4","1680x1050","1680x998",NA,"The end","2","Spreadsheet1",NA,NA,"BEGIN TASK",NA,NA,NA,NA,NA,NA,NA,NA,NA,"0","1","0",NA,NA,NA,NA,NA,NA,NA,NA,NA,NA,NA,NA,NA,NA,NA,NA,NA,NA,NA,NA,NA,NA,"ucjf5it7"
"2","2","1654622189751","07/06/2022 17:16:29","1654622189696","1","07/06/2022 18:16:29","86605","12","task-36eo",NA,"22344290","ucjf5it7","6586190",NA,"complete",NA,NA,"computer","Desktop or Laptop","Mac OS 10.15.7","Safari 15.4","1680x1050","1680x998",NA,"The end","2","Spreadsheet1","Spreadsheet1","1","1","1","Screen 1","advancementZone","continue_button","5002",NA,NA,NA,NA,"0","1","0",NA,NA,NA,NA,NA,"The end",NA,NA,NA,NA,NA,NA,NA,NA,NA,NA,NA,NA,NA,NA,NA,NA,"ucjf5it7"
"3","3","1654622189832","07/06/2022 17:16:29","1654622189698","1","07/06/2022 18:16:29","86605","12","task-36eo",NA,"22344290","ucjf5it7","6586190",NA,"complete",NA,NA,"computer","Desktop or Laptop","Mac OS 10.15.7","Safari 15.4","1680x1050","1680x998",NA,"The end","2","Spreadsheet1",NA,NA,"END TASK",NA,NA,NA,NA,"5028",NA,NA,NA,NA,"0","1","0",NA,NA,NA,NA,NA,NA,NA,NA,NA,NA,NA,NA,NA,NA,NA,NA,NA,NA,NA,NA,NA,NA,"ucjf5it7"
"4","1","1654601030584","07/06/2022 11:23:50","1654601030496","1","07/06/2022 12:23:50","86605","12","task-36eo",NA,"22332358","x15hufum","6582674",NA,"complete",NA,NA,"computer","Desktop or Laptop","Mac OS 10.15.7","Safari 15.4","1680x1050","1680x998",NA,"The end","2","Spreadsheet1",NA,NA,"BEGIN TASK",NA,NA,NA,NA,NA,NA,NA,NA,NA,"0","1","0",NA,NA,NA,NA,NA,NA,NA,NA,NA,NA,NA,NA,NA,NA,NA,NA,NA,NA,NA,NA,NA,NA,"x15hufum"
"5","2","1654601032101","07/06/2022 11:23:52","1654601032037","1","07/06/2022 12:23:52","86605","12","task-36eo",NA,"22332358","x15hufum","6582674",NA,"complete",NA,NA,"computer","Desktop or Laptop","Mac OS 10.15.7","Safari 15.4","1680x1050","1680x998",NA,"The end","2","Spreadsheet1","Spreadsheet1","1","1","1","Screen 1","advancementZone","continue_button","1526",NA,NA,NA,NA,"0","1","0",NA,NA,NA,NA,NA,"The end",NA,NA,NA,NA,NA,NA,NA,NA,NA,NA,NA,NA,NA,NA,NA,NA,"x15hufum"
"6","3","1654601032149","07/06/2022 11:23:52","1654601032039","1","07/06/2022 12:23:52","86605","12","task-36eo",NA,"22332358","x15hufum","6582674",NA,"complete",NA,NA,"computer","Desktop or Laptop","Mac OS 10.15.7","Safari 15.4","1680x1050","1680x998",NA,"The end","2","Spreadsheet1",NA,NA,"END TASK",NA,NA,NA,NA,"1543",NA,NA,NA,NA,"0","1","0",NA,NA,NA,NA,NA,NA,NA,NA,NA,NA,NA,NA,NA,NA,NA,NA,NA,NA,NA,NA,NA,NA,"x15hufum"
"7","1","1654606049754","07/06/2022 12:47:29","1654606049634","1","07/06/2022 13:47:29","86605","12","task-36eo",NA,"22335294","wopxcyrw","6583401",NA,"complete",NA,NA,"computer","Desktop or Laptop","Mac OS 10.15.7","Safari 15.4","1680x1050","1680x998",NA,"The end","2","Spreadsheet1",NA,NA,"BEGIN TASK",NA,NA,NA,NA,NA,NA,NA,NA,NA,"0","1","0",NA,NA,NA,NA,NA,NA,NA,NA,NA,NA,NA,NA,NA,NA,NA,NA,NA,NA,NA,NA,NA,NA,"wopxcyrw"
"8","2","1654606054569","07/06/2022 12:47:34","1654606054485","1","07/06/2022 13:47:34","86605","12","task-36eo",NA,"22335294","wopxcyrw","6583401",NA,"complete",NA,NA,"computer","Desktop or Laptop","Mac OS 10.15.7","Safari 15.4","1680x1050","1680x998",NA,"The end","2","Spreadsheet1","Spreadsheet1","1","1","1","Screen 1","advancementZone","continue_button","4826",NA,NA,NA,NA,"0","1","0",NA,NA,NA,NA,NA,"The end",NA,NA,NA,NA,NA,NA,NA,NA,NA,NA,NA,NA,NA,NA,NA,NA,"wopxcyrw"
"9","3","1654606054632","07/06/2022 12:47:34","1654606054488","1","07/06/2022 13:47:34","86605","12","task-36eo",NA,"22335294","wopxcyrw","6583401",NA,"complete",NA,NA,"computer","Desktop or Laptop","Mac OS 10.15.7","Safari 15.4","1680x1050","1680x998",NA,"The end","2","Spreadsheet1",NA,NA,"END TASK",NA,NA,NA,NA,"4854",NA,NA,NA,NA,"0","1","0",NA,NA,NA,NA,NA,NA,NA,NA,NA,NA,NA,NA,NA,NA,NA,NA,NA,NA,NA,NA,NA,NA,"wopxcyrw"
"10","1","1654611773699","07/06/2022 14:22:53","1654611773556","1","07/06/2022 15:22:53","86605","12","task-36eo",NA,"22337717","wyly5896","6584100",NA,"complete",NA,NA,"computer","Desktop or Laptop","Mac OS 10.15.7","Safari 15.4","1680x1050","1680x998",NA,"The end","2","Spreadsheet1",NA,NA,"BEGIN TASK",NA,NA,NA,NA,NA,NA,NA,NA,NA,"0","1","0",NA,NA,NA,NA,NA,NA,NA,NA,NA,NA,NA,NA,NA,NA,NA,NA,NA,NA,NA,NA,NA,NA,"wyly5896"
"11","2","1654611775076","07/06/2022 14:22:55","1654611774959","1","07/06/2022 15:22:54","86605","12","task-36eo",NA,"22337717","wyly5896","6584100",NA,"complete",NA,NA,"computer","Desktop or Laptop","Mac OS 10.15.7","Safari 15.4","1680x1050","1680x998",NA,"The end","2","Spreadsheet1","Spreadsheet1","1","1","1","Screen 1","advancementZone","continue_button","1386",NA,NA,NA,NA,"0","1","0",NA,NA,NA,NA,NA,"The end",NA,NA,NA,NA,NA,NA,NA,NA,NA,NA,NA,NA,NA,NA,NA,NA,"wyly5896"
"12","3","1654611775119","07/06/2022 14:22:55","1654611774962","1","07/06/2022 15:22:54","86605","12","task-36eo",NA,"22337717","wyly5896","6584100",NA,"complete",NA,NA,"computer","Desktop or Laptop","Mac OS 10.15.7","Safari 15.4","1680x1050","1680x998",NA,"The end","2","Spreadsheet1",NA,NA,"END TASK",NA,NA,NA,NA,"1406",NA,NA,NA,NA,"0","1","0",NA,NA,NA,NA,NA,NA,NA,NA,NA,NA,NA,NA,NA,NA,NA,NA,NA,NA,NA,NA,NA,NA,"wyly5896"
"13","1","1654622184761","07/06/2022 17:16:24","1654622184670","1","07/06/2022 18:16:24","86605","12","task-36eo",NA,"22344290","ucjf5it7","6586190",NA,"complete",NA,NA,"computer","Desktop or Laptop","Mac OS 10.15.7","Safari 15.4","1680x1050","1680x998",NA,"The end","2","Spreadsheet1",NA,NA,"BEGIN TASK",NA,NA,NA,NA,NA,NA,NA,NA,NA,"0","1","0",NA,NA,NA,NA,NA,NA,NA,NA,NA,NA,NA,NA,NA,NA,NA,NA,NA,NA,NA,NA,NA,NA,"ucjf5it7"
"14","2","1654622189751","07/06/2022 17:16:29","1654622189696","1","07/06/2022 18:16:29","86605","12","task-36eo",NA,"22344290","ucjf5it7","6586190",NA,"complete",NA,NA,"computer","Desktop or Laptop","Mac OS 10.15.7","Safari 15.4","1680x1050","1680x998",NA,"The end","2","Spreadsheet1","Spreadsheet1","1","1","1","Screen 1","advancementZone","continue_button","5002",NA,NA,NA,NA,"0","1","0",NA,NA,NA,NA,NA,"The end",NA,NA,NA,NA,NA,NA,NA,NA,NA,NA,NA,NA,NA,NA,NA,NA,"ucjf5it7"
"15","3","1654622189832","07/06/2022 17:16:29","1654622189698","1","07/06/2022 18:16:29","86605","12","task-36eo",NA,"22344290","ucjf5it7","6586190",NA,"complete",NA,NA,"computer","Desktop or Laptop","Mac OS 10.15.7","Safari 15.4","1680x1050","1680x998",NA,"The end","2","Spreadsheet1",NA,NA,"END TASK",NA,NA,NA,NA,"5028",NA,NA,NA,NA,"0","1","0",NA,NA,NA,NA,NA,NA,NA,NA,NA,NA,NA,NA,NA,NA,NA,NA,NA,NA,NA,NA,NA,NA,"ucjf5it7"
"16","1","1654681513519","08/06/2022 09:45:13","1654681513362","1","08/06/2022 10:45:13","86605","12","task-36eo",NA,"22353972","u4ckj0xb","6588751",NA,"complete",NA,NA,"computer","Desktop or Laptop","Mac OS 10.15.7","Safari 15.4","1680x1050","1680x998",NA,"The end","2","Spreadsheet1",NA,NA,"BEGIN TASK",NA,NA,NA,NA,NA,NA,NA,NA,NA,"0","1","0",NA,NA,NA,NA,NA,NA,NA,NA,NA,NA,NA,NA,NA,NA,NA,NA,NA,NA,NA,NA,NA,NA,"u4ckj0xb"
"17","2","1654681515296","08/06/2022 09:45:15","1654681515162","1","08/06/2022 10:45:15","86605","12","task-36eo",NA,"22353972","u4ckj0xb","6588751",NA,"complete",NA,NA,"computer","Desktop or Laptop","Mac OS 10.15.7","Safari 15.4","1680x1050","1680x998",NA,"The end","2","Spreadsheet1","Spreadsheet1","1","1","1","Screen 1","advancementZone","continue_button","1766",NA,NA,NA,NA,"0","1","0",NA,NA,NA,NA,NA,"The end",NA,NA,NA,NA,NA,NA,NA,NA,NA,NA,NA,NA,NA,NA,NA,NA,"u4ckj0xb"
"18","3","1654681515347","08/06/2022 09:45:15","1654681515165","1","08/06/2022 10:45:15","86605","12","task-36eo",NA,"22353972","u4ckj0xb","6588751",NA,"complete",NA,NA,"computer","Desktop or Laptop","Mac OS 10.15.7","Safari 15.4","1680x1050","1680x998",NA,"The end","2","Spreadsheet1",NA,NA,"END TASK",NA,NA,NA,NA,"1803",NA,NA,NA,NA,"0","1","0",NA,NA,NA,NA,NA,NA,NA,NA,NA,NA,NA,NA,NA,NA,NA,NA,NA,NA,NA,NA,NA,NA,"u4ckj0xb"
"19","1","1654687267240","08/06/2022 11:21:07","1654687267145","1","08/06/2022 12:21:07","86605","12","task-36eo",NA,"22356036","rcburgqm","6589320",NA,"complete",NA,NA,"computer","Desktop or Laptop","Mac OS 10.15.7","Safari 15.4","1680x1050","1680x998",NA,"The end","2","Spreadsheet1",NA,NA,"BEGIN TASK",NA,NA,NA,NA,NA,NA,NA,NA,NA,"0","1","0",NA,NA,NA,NA,NA,NA,NA,NA,NA,NA,NA,NA,NA,NA,NA,NA,NA,NA,NA,NA,NA,NA,"rcburgqm"
"20","2","1654687269756","08/06/2022 11:21:09","1654687269650","1","08/06/2022 12:21:09","86605","12","task-36eo",NA,"22356036","rcburgqm","6589320",NA,"complete",NA,NA,"computer","Desktop or Laptop","Mac OS 10.15.7","Safari 15.4","1680x1050","1680x998",NA,"The end","2","Spreadsheet1","Spreadsheet1","1","1","1","Screen 1","advancementZone","continue_button","2489",NA,NA,NA,NA,"0","1","0",NA,NA,NA,NA,NA,"The end",NA,NA,NA,NA,NA,NA,NA,NA,NA,NA,NA,NA,NA,NA,NA,NA,"rcburgqm"
"21","3","1654687269788","08/06/2022 11:21:09","1654687269652","1","08/06/2022 12:21:09","86605","12","task-36eo",NA,"22356036","rcburgqm","6589320",NA,"complete",NA,NA,"computer","Desktop or Laptop","Mac OS 10.15.7","Safari 15.4","1680x1050","1680x998",NA,"The end","2","Spreadsheet1",NA,NA,"END TASK",NA,NA,NA,NA,"2507",NA,NA,NA,NA,"0","1","0",NA,NA,NA,NA,NA,NA,NA,NA,NA,NA,NA,NA,NA,NA,NA,NA,NA,NA,NA,NA,NA,NA,"rcburgqm"
"22","1","1654692906368","08/06/2022 12:55:06","1654692906255","1","08/06/2022 13:55:06","86605","12","task-36eo",NA,"22358594","p1el4un1","6590094",NA,"complete",NA,NA,"computer","Desktop or Laptop","Mac OS 10.15.7","Safari 15.4","1680x1050","1680x998",NA,"The end","2","Spreadsheet1",NA,NA,"BEGIN TASK",NA,NA,NA,NA,NA,NA,NA,NA,NA,"0","1","0",NA,NA,NA,NA,NA,NA,NA,NA,NA,NA,NA,NA,NA,NA,NA,NA,NA,NA,NA,NA,NA,NA,"p1el4un1"
"23","2","1654692908863","08/06/2022 12:55:08","1654692908791","1","08/06/2022 13:55:08","86605","12","task-36eo",NA,"22358594","p1el4un1","6590094",NA,"complete",NA,NA,"computer","Desktop or Laptop","Mac OS 10.15.7","Safari 15.4","1680x1050","1680x998",NA,"The end","2","Spreadsheet1","Spreadsheet1","1","1","1","Screen 1","advancementZone","continue_button","2520",NA,NA,NA,NA,"0","1","0",NA,NA,NA,NA,NA,"The end",NA,NA,NA,NA,NA,NA,NA,NA,NA,NA,NA,NA,NA,NA,NA,NA,"p1el4un1"
"24","3","1654692908909","08/06/2022 12:55:08","1654692908794","1","08/06/2022 13:55:08","86605","12","task-36eo",NA,"22358594","p1el4un1","6590094",NA,"complete",NA,NA,"computer","Desktop or Laptop","Mac OS 10.15.7","Safari 15.4","1680x1050","1680x998",NA,"The end","2","Spreadsheet1",NA,NA,"END TASK",NA,NA,NA,NA,"2539",NA,NA,NA,NA,"0","1","0",NA,NA,NA,NA,NA,NA,NA,NA,NA,NA,NA,NA,NA,NA,NA,NA,NA,NA,NA,NA,NA,NA,"p1el4un1"
"25","1","1654697742044","08/06/2022 14:15:42","1654697741921","1","08/06/2022 15:15:41","86605","12","task-36eo",NA,"22360302","7ca8udou","6590644",NA,"complete",NA,NA,"computer","Desktop or Laptop","Mac OS 10.15.7","Safari 15.4","1680x1050","1680x998",NA,"The end","2","Spreadsheet1",NA,NA,"BEGIN TASK",NA,NA,NA,NA,NA,NA,NA,NA,NA,"0","1","0",NA,NA,NA,NA,NA,NA,NA,NA,NA,NA,NA,NA,NA,NA,NA,NA,NA,NA,NA,NA,NA,NA,"7ca8udou"
"26","2","1654697743668","08/06/2022 14:15:43","1654697743591","1","08/06/2022 15:15:43","86605","12","task-36eo",NA,"22360302","7ca8udou","6590644",NA,"complete",NA,NA,"computer","Desktop or Laptop","Mac OS 10.15.7","Safari 15.4","1680x1050","1680x998",NA,"The end","2","Spreadsheet1","Spreadsheet1","1","1","1","Screen 1","advancementZone","continue_button","1656",NA,NA,NA,NA,"0","1","0",NA,NA,NA,NA,NA,"The end",NA,NA,NA,NA,NA,NA,NA,NA,NA,NA,NA,NA,NA,NA,NA,NA,"7ca8udou"
"27","3","1654697743760","08/06/2022 14:15:43","1654697743593","1","08/06/2022 15:15:43","86605","12","task-36eo",NA,"22360302","7ca8udou","6590644",NA,"complete",NA,NA,"computer","Desktop or Laptop","Mac OS 10.15.7","Safari 15.4","1680x1050","1680x998",NA,"The end","2","Spreadsheet1",NA,NA,"END TASK",NA,NA,NA,NA,"1672",NA,NA,NA,NA,"0","1","0",NA,NA,NA,NA,NA,NA,NA,NA,NA,NA,NA,NA,NA,NA,NA,NA,NA,NA,NA,NA,NA,NA,"7ca8udou"
"28","1","1654704164957","08/06/2022 16:02:44","1654704164846","1","08/06/2022 17:02:44","86605","12","task-36eo",NA,"22362642","fbdvz2jm","6591244",NA,"complete",NA,NA,"computer","Desktop or Laptop","Mac OS 10.15.7","Safari 15.4","1680x1050","1680x998",NA,"The end","2","Spreadsheet1",NA,NA,"BEGIN TASK",NA,NA,NA,NA,NA,NA,NA,NA,NA,"0","1","0",NA,NA,NA,NA,NA,NA,NA,NA,NA,NA,NA,NA,NA,NA,NA,NA,NA,NA,NA,NA,NA,NA,"fbdvz2jm"
"29","2","1654704167826","08/06/2022 16:02:47","1654704167758","1","08/06/2022 17:02:47","86605","12","task-36eo",NA,"22362642","fbdvz2jm","6591244",NA,"complete",NA,NA,"computer","Desktop or Laptop","Mac OS 10.15.7","Safari 15.4","1680x1050","1680x998",NA,"The end","2","Spreadsheet1","Spreadsheet1","1","1","1","Screen 1","advancementZone","continue_button","2888",NA,NA,NA,NA,"0","1","0",NA,NA,NA,NA,NA,"The end",NA,NA,NA,NA,NA,NA,NA,NA,NA,NA,NA,NA,NA,NA,NA,NA,"fbdvz2jm"
"30","3","1654704167886","08/06/2022 16:02:47","1654704167761","1","08/06/2022 17:02:47","86605","12","task-36eo",NA,"22362642","fbdvz2jm","6591244",NA,"complete",NA,NA,"computer","Desktop or Laptop","Mac OS 10.15.7","Safari 15.4","1680x1050","1680x998",NA,"The end","2","Spreadsheet1",NA,NA,"END TASK",NA,NA,NA,NA,"2915",NA,NA,NA,NA,"0","1","0",NA,NA,NA,NA,NA,NA,NA,NA,NA,NA,NA,NA,NA,NA,NA,NA,NA,NA,NA,NA,NA,NA,"fbdvz2jm"
"31","1","1654709276666","08/06/2022 17:27:56","1654709276570","1","08/06/2022 18:27:56","86605","12","task-36eo",NA,"22365048","lcoa0ulz","6591969",NA,"complete",NA,NA,"computer","Desktop or Laptop","Mac OS 10.15.7","Safari 15.4","1680x1050","1680x998",NA,"The end","2","Spreadsheet1",NA,NA,"BEGIN TASK",NA,NA,NA,NA,NA,NA,NA,NA,NA,"0","1","0",NA,NA,NA,NA,NA,NA,NA,NA,NA,NA,NA,NA,NA,NA,NA,NA,NA,NA,NA,NA,NA,NA,"lcoa0ulz"
"32","2","1654709279354","08/06/2022 17:27:59","1654709279287","1","08/06/2022 18:27:59","86605","12","task-36eo",NA,"22365048","lcoa0ulz","6591969",NA,"complete",NA,NA,"computer","Desktop or Laptop","Mac OS 10.15.7","Safari 15.4","1680x1050","1680x998",NA,"The end","2","Spreadsheet1","Spreadsheet1","1","1","1","Screen 1","advancementZone","continue_button","2685",NA,NA,NA,NA,"0","1","0",NA,NA,NA,NA,NA,"The end",NA,NA,NA,NA,NA,NA,NA,NA,NA,NA,NA,NA,NA,NA,NA,NA,"lcoa0ulz"
"33","3","1654709279740","08/06/2022 17:27:59","1654709279290","1","08/06/2022 18:27:59","86605","12","task-36eo",NA,"22365048","lcoa0ulz","6591969",NA,"complete",NA,NA,"computer","Desktop or Laptop","Mac OS 10.15.7","Safari 15.4","1680x1050","1680x998",NA,"The end","2","Spreadsheet1",NA,NA,"END TASK",NA,NA,NA,NA,"2720",NA,NA,NA,NA,"0","1","0",NA,NA,NA,NA,NA,NA,NA,NA,NA,NA,NA,NA,NA,NA,NA,NA,NA,NA,NA,NA,NA,NA,"lcoa0ulz"
"34","1","1654620961910","07/06/2022 16:56:01","1654620961669","1","07/06/2022 17:56:01","86605","12","task-4n1r",NA,"22343706","ucjf5it7","6586190",NA,"complete",NA,NA,"computer","Desktop or Laptop","Mac OS 10.15.7","Safari 15.4","1680x1050","1680x998",NA,"Closeness-2","5","Spreadsheet1",NA,NA,"BEGIN TASK",NA,NA,NA,NA,NA,NA,NA,NA,NA,"0","1","0",NA,NA,NA,NA,NA,NA,NA,NA,NA,NA,NA,NA,NA,NA,NA,NA,NA,NA,NA,NA,NA,NA,"ucjf5it7"
"35","2","1654620964827","07/06/2022 16:56:04","1654620964758","1","07/06/2022 17:56:04","86605","12","task-4n1r",NA,"22343706","ucjf5it7","6586190",NA,"complete",NA,NA,"computer","Desktop or Laptop","Mac OS 10.15.7","Safari 15.4","1680x1050","1680x998",NA,"Closeness-2","5","Spreadsheet1","Spreadsheet1","1","1","1","Screen 1","buttonC","response_button_image","3052",NA,NA,"3.png","1","0","1","0",NA,NA,NA,NA,NA,"Instructions",NA,"1.png","2.png","3.png","4.png","5.png","6.png","7.png",NA,NA,NA,NA,NA,NA,NA,NA,"ucjf5it7"
"36","3","1654620964879","07/06/2022 16:56:04","1654620964761","1","07/06/2022 17:56:04","86605","12","task-4n1r",NA,"22343706","ucjf5it7","6586190",NA,"complete",NA,NA,"computer","Desktop or Laptop","Mac OS 10.15.7","Safari 15.4","1680x1050","1680x998",NA,"Closeness-2","5","Spreadsheet1",NA,NA,"END TASK",NA,NA,NA,NA,"3092",NA,NA,NA,NA,"0","1","0",NA,NA,NA,NA,NA,NA,NA,NA,NA,NA,NA,NA,NA,NA,NA,NA,NA,NA,NA,NA,NA,NA,"ucjf5it7"
"37","1","1654599922200","07/06/2022 11:05:22","1654599922114","1","07/06/2022 12:05:22","86605","12","task-4n1r",NA,"22331569","x15hufum","6582674",NA,"complete",NA,NA,"computer","Desktop or Laptop","Mac OS 10.15.7","Safari 15.4","1680x1050","1680x998",NA,"Closeness-2","5","Spreadsheet1",NA,NA,"BEGIN TASK",NA,NA,NA,NA,NA,NA,NA,NA,NA,"0","1","0",NA,NA,NA,NA,NA,NA,NA,NA,NA,NA,NA,NA,NA,NA,NA,NA,NA,NA,NA,NA,NA,NA,"x15hufum"
"38","2","1654599933122","07/06/2022 11:05:33","1654599932925","1","07/06/2022 12:05:32","86605","12","task-4n1r",NA,"22331569","x15hufum","6582674",NA,"complete",NA,NA,"computer","Desktop or Laptop","Mac OS 10.15.7","Safari 15.4","1680x1050","1680x998",NA,"Closeness-2","5","Spreadsheet1","Spreadsheet1","1","1","1","Screen 1","buttonE","response_button_image","10747",NA,NA,"5.png","1","0","1","0",NA,NA,NA,NA,NA,"Instructions",NA,"1.png","2.png","3.png","4.png","5.png","6.png","7.png",NA,NA,NA,NA,NA,NA,NA,NA,"x15hufum"
"39","3","1654599933924","07/06/2022 11:05:33","1654599932928","1","07/06/2022 12:05:32","86605","12","task-4n1r",NA,"22331569","x15hufum","6582674",NA,"complete",NA,NA,"computer","Desktop or Laptop","Mac OS 10.15.7","Safari 15.4","1680x1050","1680x998",NA,"Closeness-2","5","Spreadsheet1",NA,NA,"END TASK",NA,NA,NA,NA,"10814",NA,NA,NA,NA,"0","1","0",NA,NA,NA,NA,NA,NA,NA,NA,NA,NA,NA,NA,NA,NA,NA,NA,NA,NA,NA,NA,NA,NA,"x15hufum"
"40","1","1654604807567","07/06/2022 12:26:47","1654604807471","1","07/06/2022 13:26:47","86605","12","task-4n1r",NA,"22334451","wopxcyrw","6583401",NA,"complete",NA,NA,"computer","Desktop or Laptop","Mac OS 10.15.7","Safari 15.4","1680x1050","1680x998",NA,"Closeness-2","5","Spreadsheet1",NA,NA,"BEGIN TASK",NA,NA,NA,NA,NA,NA,NA,NA,NA,"0","1","0",NA,NA,NA,NA,NA,NA,NA,NA,NA,NA,NA,NA,NA,NA,NA,NA,NA,NA,NA,NA,NA,NA,"wopxcyrw"
"41","2","1654604809474","07/06/2022 12:26:49","1654604809400","1","07/06/2022 13:26:49","86605","12","task-4n1r",NA,"22334451","wopxcyrw","6583401",NA,"complete",NA,NA,"computer","Desktop or Laptop","Mac OS 10.15.7","Safari 15.4","1680x1050","1680x998",NA,"Closeness-2","5","Spreadsheet1","Spreadsheet1","1","1","1","Screen 1","buttonC","response_button_image","1844",NA,NA,"3.png","1","0","1","0",NA,NA,NA,NA,NA,"Instructions",NA,"1.png","2.png","3.png","4.png","5.png","6.png","7.png",NA,NA,NA,NA,NA,NA,NA,NA,"wopxcyrw"
"42","3","1654604809546","07/06/2022 12:26:49","1654604809403","1","07/06/2022 13:26:49","86605","12","task-4n1r",NA,"22334451","wopxcyrw","6583401",NA,"complete",NA,NA,"computer","Desktop or Laptop","Mac OS 10.15.7","Safari 15.4","1680x1050","1680x998",NA,"Closeness-2","5","Spreadsheet1",NA,NA,"END TASK",NA,NA,NA,NA,"1932",NA,NA,NA,NA,"0","1","0",NA,NA,NA,NA,NA,NA,NA,NA,NA,NA,NA,NA,NA,NA,NA,NA,NA,NA,NA,NA,NA,NA,"wopxcyrw"
"43","1","1654610353290","07/06/2022 13:59:13","1654610353182","1","07/06/2022 14:59:13","86605","12","task-4n1r",NA,"22336953","wyly5896","6584100",NA,"complete",NA,NA,"computer","Desktop or Laptop","Mac OS 10.15.7","Safari 15.4","1680x1050","1680x998",NA,"Closeness-2","5","Spreadsheet1",NA,NA,"BEGIN TASK",NA,NA,NA,NA,NA,NA,NA,NA,NA,"0","1","0",NA,NA,NA,NA,NA,NA,NA,NA,NA,NA,NA,NA,NA,NA,NA,NA,NA,NA,NA,NA,NA,NA,"wyly5896"
"44","2","1654610357358","07/06/2022 13:59:17","1654610357281","1","07/06/2022 14:59:17","86605","12","task-4n1r",NA,"22336953","wyly5896","6584100",NA,"complete",NA,NA,"computer","Desktop or Laptop","Mac OS 10.15.7","Safari 15.4","1680x1050","1680x998",NA,"Closeness-2","5","Spreadsheet1","Spreadsheet1","1","1","1","Screen 1","buttonB","response_button_image","4055",NA,NA,"2.png","1","0","1","0",NA,NA,NA,NA,NA,"Instructions",NA,"1.png","2.png","3.png","4.png","5.png","6.png","7.png",NA,NA,NA,NA,NA,NA,NA,NA,"wyly5896"
"45","3","1654610357410","07/06/2022 13:59:17","1654610357283","1","07/06/2022 14:59:17","86605","12","task-4n1r",NA,"22336953","wyly5896","6584100",NA,"complete",NA,NA,"computer","Desktop or Laptop","Mac OS 10.15.7","Safari 15.4","1680x1050","1680x998",NA,"Closeness-2","5","Spreadsheet1",NA,NA,"END TASK",NA,NA,NA,NA,"4101",NA,NA,NA,NA,"0","1","0",NA,NA,NA,NA,NA,NA,NA,NA,NA,NA,NA,NA,NA,NA,NA,NA,NA,NA,NA,NA,NA,NA,"wyly5896"
"46","1","1654620961910","07/06/2022 16:56:01","1654620961669","1","07/06/2022 17:56:01","86605","12","task-4n1r",NA,"22343706","ucjf5it7","6586190",NA,"complete",NA,NA,"computer","Desktop or Laptop","Mac OS 10.15.7","Safari 15.4","1680x1050","1680x998",NA,"Closeness-2","5","Spreadsheet1",NA,NA,"BEGIN TASK",NA,NA,NA,NA,NA,NA,NA,NA,NA,"0","1","0",NA,NA,NA,NA,NA,NA,NA,NA,NA,NA,NA,NA,NA,NA,NA,NA,NA,NA,NA,NA,NA,NA,"ucjf5it7"
"47","2","1654620964827","07/06/2022 16:56:04","1654620964758","1","07/06/2022 17:56:04","86605","12","task-4n1r",NA,"22343706","ucjf5it7","6586190",NA,"complete",NA,NA,"computer","Desktop or Laptop","Mac OS 10.15.7","Safari 15.4","1680x1050","1680x998",NA,"Closeness-2","5","Spreadsheet1","Spreadsheet1","1","1","1","Screen 1","buttonC","response_button_image","3052",NA,NA,"3.png","1","0","1","0",NA,NA,NA,NA,NA,"Instructions",NA,"1.png","2.png","3.png","4.png","5.png","6.png","7.png",NA,NA,NA,NA,NA,NA,NA,NA,"ucjf5it7"
"48","3","1654620964879","07/06/2022 16:56:04","1654620964761","1","07/06/2022 17:56:04","86605","12","task-4n1r",NA,"22343706","ucjf5it7","6586190",NA,"complete",NA,NA,"computer","Desktop or Laptop","Mac OS 10.15.7","Safari 15.4","1680x1050","1680x998",NA,"Closeness-2","5","Spreadsheet1",NA,NA,"END TASK",NA,NA,NA,NA,"3092",NA,NA,NA,NA,"0","1","0",NA,NA,NA,NA,NA,NA,NA,NA,NA,NA,NA,NA,NA,NA,NA,NA,NA,NA,NA,NA,NA,NA,"ucjf5it7"
"49","1","1654680395925","08/06/2022 09:26:35","1654680395836","1","08/06/2022 10:26:35","86605","12","task-4n1r",NA,"22353604","u4ckj0xb","6588751",NA,"complete",NA,NA,"computer","Desktop or Laptop","Mac OS 10.15.7","Safari 15.4","1680x1050","1680x998",NA,"Closeness-2","5","Spreadsheet1",NA,NA,"BEGIN TASK",NA,NA,NA,NA,NA,NA,NA,NA,NA,"0","1","0",NA,NA,NA,NA,NA,NA,NA,NA,NA,NA,NA,NA,NA,NA,NA,NA,NA,NA,NA,NA,NA,NA,"u4ckj0xb"
"50","2","1654680400070","08/06/2022 09:26:40","1654680399981","1","08/06/2022 10:26:39","86605","12","task-4n1r",NA,"22353604","u4ckj0xb","6588751",NA,"complete",NA,NA,"computer","Desktop or Laptop","Mac OS 10.15.7","Safari 15.4","1680x1050","1680x998",NA,"Closeness-2","5","Spreadsheet1","Spreadsheet1","1","1","1","Screen 1","buttonE","response_button_image","4073",NA,NA,"5.png","1","0","1","0",NA,NA,NA,NA,NA,"Instructions",NA,"1.png","2.png","3.png","4.png","5.png","6.png","7.png",NA,NA,NA,NA,NA,NA,NA,NA,"u4ckj0xb"
"51","3","1654680400128","08/06/2022 09:26:40","1654680399984","1","08/06/2022 10:26:39","86605","12","task-4n1r",NA,"22353604","u4ckj0xb","6588751",NA,"complete",NA,NA,"computer","Desktop or Laptop","Mac OS 10.15.7","Safari 15.4","1680x1050","1680x998",NA,"Closeness-2","5","Spreadsheet1",NA,NA,"END TASK",NA,NA,NA,NA,"4148",NA,NA,NA,NA,"0","1","0",NA,NA,NA,NA,NA,NA,NA,NA,NA,NA,NA,NA,NA,NA,NA,NA,NA,NA,NA,NA,NA,NA,"u4ckj0xb"
"52","1","1654686001593","08/06/2022 11:00:01","1654686001500","1","08/06/2022 12:00:01","86605","12","task-4n1r",NA,"22355527","rcburgqm","6589320",NA,"complete",NA,NA,"computer","Desktop or Laptop","Mac OS 10.15.7","Safari 15.4","1680x1050","1680x998",NA,"Closeness-2","5","Spreadsheet1",NA,NA,"BEGIN TASK",NA,NA,NA,NA,NA,NA,NA,NA,NA,"0","1","0",NA,NA,NA,NA,NA,NA,NA,NA,NA,NA,NA,NA,NA,NA,NA,NA,NA,NA,NA,NA,NA,NA,"rcburgqm"
"53","2","1654686006001","08/06/2022 11:00:06","1654686005953","1","08/06/2022 12:00:05","86605","12","task-4n1r",NA,"22355527","rcburgqm","6589320",NA,"complete",NA,NA,"computer","Desktop or Laptop","Mac OS 10.15.7","Safari 15.4","1680x1050","1680x998",NA,"Closeness-2","5","Spreadsheet1","Spreadsheet1","1","1","1","Screen 1","buttonC","response_button_image","4377",NA,NA,"3.png","1","0","1","0",NA,NA,NA,NA,NA,"Instructions",NA,"1.png","2.png","3.png","4.png","5.png","6.png","7.png",NA,NA,NA,NA,NA,NA,NA,NA,"rcburgqm"
"54","3","1654686006034","08/06/2022 11:00:06","1654686005955","1","08/06/2022 12:00:05","86605","12","task-4n1r",NA,"22355527","rcburgqm","6589320",NA,"complete",NA,NA,"computer","Desktop or Laptop","Mac OS 10.15.7","Safari 15.4","1680x1050","1680x998",NA,"Closeness-2","5","Spreadsheet1",NA,NA,"END TASK",NA,NA,NA,NA,"4455",NA,NA,NA,NA,"0","1","0",NA,NA,NA,NA,NA,NA,NA,NA,NA,NA,NA,NA,NA,NA,NA,NA,NA,NA,NA,NA,NA,NA,"rcburgqm"
"55","1","1654691602111","08/06/2022 12:33:22","1654691602018","1","08/06/2022 13:33:22","86605","12","task-4n1r",NA,"22358096","p1el4un1","6590094",NA,"complete",NA,NA,"computer","Desktop or Laptop","Mac OS 10.15.7","Safari 15.4","1680x1050","1680x998",NA,"Closeness-2","5","Spreadsheet1",NA,NA,"BEGIN TASK",NA,NA,NA,NA,NA,NA,NA,NA,NA,"0","1","0",NA,NA,NA,NA,NA,NA,NA,NA,NA,NA,NA,NA,NA,NA,NA,NA,NA,NA,NA,NA,NA,NA,"p1el4un1"
"56","2","1654691604366","08/06/2022 12:33:24","1654691604319","1","08/06/2022 13:33:24","86605","12","task-4n1r",NA,"22358096","p1el4un1","6590094",NA,"complete",NA,NA,"computer","Desktop or Laptop","Mac OS 10.15.7","Safari 15.4","1680x1050","1680x998",NA,"Closeness-2","5","Spreadsheet1","Spreadsheet1","1","1","1","Screen 1","buttonA","response_button_image","2263",NA,NA,"1.png","1","0","1","0",NA,NA,NA,NA,NA,"Instructions",NA,"1.png","2.png","3.png","4.png","5.png","6.png","7.png",NA,NA,NA,NA,NA,NA,NA,NA,"p1el4un1"
"57","3","1654691604425","08/06/2022 12:33:24","1654691604322","1","08/06/2022 13:33:24","86605","12","task-4n1r",NA,"22358096","p1el4un1","6590094",NA,"complete",NA,NA,"computer","Desktop or Laptop","Mac OS 10.15.7","Safari 15.4","1680x1050","1680x998",NA,"Closeness-2","5","Spreadsheet1",NA,NA,"END TASK",NA,NA,NA,NA,"2304",NA,NA,NA,NA,"0","1","0",NA,NA,NA,NA,NA,NA,NA,NA,NA,NA,NA,NA,NA,NA,NA,NA,NA,NA,NA,NA,NA,NA,"p1el4un1"
"58","1","1654696606241","08/06/2022 13:56:46","1654696606106","1","08/06/2022 14:56:46","86605","12","task-4n1r",NA,"22359897","7ca8udou","6590644",NA,"complete",NA,NA,"computer","Desktop or Laptop","Mac OS 10.15.7","Safari 15.4","1680x1050","1680x998",NA,"Closeness-2","5","Spreadsheet1",NA,NA,"BEGIN TASK",NA,NA,NA,NA,NA,NA,NA,NA,NA,"0","1","0",NA,NA,NA,NA,NA,NA,NA,NA,NA,NA,NA,NA,NA,NA,NA,NA,NA,NA,NA,NA,NA,NA,"7ca8udou"
"59","2","1654696615834","08/06/2022 13:56:55","1654696615748","1","08/06/2022 14:56:55","86605","12","task-4n1r",NA,"22359897","7ca8udou","6590644",NA,"complete",NA,NA,"computer","Desktop or Laptop","Mac OS 10.15.7","Safari 15.4","1680x1050","1680x998",NA,"Closeness-2","5","Spreadsheet1","Spreadsheet1","1","1","1","Screen 1","buttonE","response_button_image","9595",NA,NA,"5.png","1","0","1","0",NA,NA,NA,NA,NA,"Instructions",NA,"1.png","2.png","3.png","4.png","5.png","6.png","7.png",NA,NA,NA,NA,NA,NA,NA,NA,"7ca8udou"
"60","3","1654696615867","08/06/2022 13:56:55","1654696615751","1","08/06/2022 14:56:55","86605","12","task-4n1r",NA,"22359897","7ca8udou","6590644",NA,"complete",NA,NA,"computer","Desktop or Laptop","Mac OS 10.15.7","Safari 15.4","1680x1050","1680x998",NA,"Closeness-2","5","Spreadsheet1",NA,NA,"END TASK",NA,NA,NA,NA,"9645",NA,NA,NA,NA,"0","1","0",NA,NA,NA,NA,NA,NA,NA,NA,NA,NA,NA,NA,NA,NA,NA,NA,NA,NA,NA,NA,NA,NA,"7ca8udou"
"61","1","1654702342149","08/06/2022 15:32:22","1654702342041","1","08/06/2022 16:32:22","86605","12","task-4n1r",NA,"22361904","fbdvz2jm","6591244",NA,"complete",NA,NA,"computer","Desktop or Laptop","Mac OS 10.15.7","Safari 15.4","1680x1050","1680x998",NA,"Closeness-2","5","Spreadsheet1",NA,NA,"BEGIN TASK",NA,NA,NA,NA,NA,NA,NA,NA,NA,"0","1","0",NA,NA,NA,NA,NA,NA,NA,NA,NA,NA,NA,NA,NA,NA,NA,NA,NA,NA,NA,NA,NA,NA,"fbdvz2jm"
"62","2","1654702348100","08/06/2022 15:32:28","1654702347998","1","08/06/2022 16:32:27","86605","12","task-4n1r",NA,"22361904","fbdvz2jm","6591244",NA,"complete",NA,NA,"computer","Desktop or Laptop","Mac OS 10.15.7","Safari 15.4","1680x1050","1680x998",NA,"Closeness-2","5","Spreadsheet1","Spreadsheet1","1","1","1","Screen 1","buttonB","response_button_image","5917",NA,NA,"2.png","1","0","1","0",NA,NA,NA,NA,NA,"Instructions",NA,"1.png","2.png","3.png","4.png","5.png","6.png","7.png",NA,NA,NA,NA,NA,NA,NA,NA,"fbdvz2jm"
"63","3","1654702348162","08/06/2022 15:32:28","1654702348001","1","08/06/2022 16:32:28","86605","12","task-4n1r",NA,"22361904","fbdvz2jm","6591244",NA,"complete",NA,NA,"computer","Desktop or Laptop","Mac OS 10.15.7","Safari 15.4","1680x1050","1680x998",NA,"Closeness-2","5","Spreadsheet1",NA,NA,"END TASK",NA,NA,NA,NA,"5960",NA,NA,NA,NA,"0","1","0",NA,NA,NA,NA,NA,NA,NA,NA,NA,NA,NA,NA,NA,NA,NA,NA,NA,NA,NA,NA,NA,NA,"fbdvz2jm"
"64","1","1654707808115","08/06/2022 17:03:28","1654707808008","1","08/06/2022 18:03:28","86605","12","task-4n1r",NA,"22364309","lcoa0ulz","6591969",NA,"complete",NA,NA,"computer","Desktop or Laptop","Mac OS 10.15.7","Safari 15.4","1680x1050","1680x998",NA,"Closeness-2","5","Spreadsheet1",NA,NA,"BEGIN TASK",NA,NA,NA,NA,NA,NA,NA,NA,NA,"0","1","0",NA,NA,NA,NA,NA,NA,NA,NA,NA,NA,NA,NA,NA,NA,NA,NA,NA,NA,NA,NA,NA,NA,"lcoa0ulz"
"65","2","1654707814164","08/06/2022 17:03:34","1654707814110","1","08/06/2022 18:03:34","86605","12","task-4n1r",NA,"22364309","lcoa0ulz","6591969",NA,"complete",NA,NA,"computer","Desktop or Laptop","Mac OS 10.15.7","Safari 15.4","1680x1050","1680x998",NA,"Closeness-2","5","Spreadsheet1","Spreadsheet1","1","1","1","Screen 1","buttonB","response_button_image","6063",NA,NA,"2.png","1","0","1","0",NA,NA,NA,NA,NA,"Instructions",NA,"1.png","2.png","3.png","4.png","5.png","6.png","7.png",NA,NA,NA,NA,NA,NA,NA,NA,"lcoa0ulz"
"66","3","1654707814207","08/06/2022 17:03:34","1654707814113","1","08/06/2022 18:03:34","86605","12","task-4n1r",NA,"22364309","lcoa0ulz","6591969",NA,"complete",NA,NA,"computer","Desktop or Laptop","Mac OS 10.15.7","Safari 15.4","1680x1050","1680x998",NA,"Closeness-2","5","Spreadsheet1",NA,NA,"END TASK",NA,NA,NA,NA,"6105",NA,NA,NA,NA,"0","1","0",NA,NA,NA,NA,NA,NA,NA,NA,NA,NA,NA,NA,NA,NA,NA,NA,NA,NA,NA,NA,NA,NA,"lcoa0ulz"
"67","1","1654620563104","07/06/2022 16:49:23","1654620563014","1","07/06/2022 17:49:23","86605","12","task-fj2g",NA,"22343482","ucjf5it7","6586190",NA,"complete",NA,NA,"computer","Desktop or Laptop","Mac OS 10.15.7","Safari 15.4","1680x1050","1680x998",NA,"Closeness-1","4","Spreadsheet1",NA,NA,"BEGIN TASK",NA,NA,NA,NA,NA,NA,NA,NA,NA,"0","1","0",NA,NA,NA,NA,NA,NA,NA,NA,NA,NA,NA,NA,NA,NA,NA,NA,NA,NA,NA,NA,NA,NA,"ucjf5it7"
"68","2","1654620570965","07/06/2022 16:49:30","1654620570904","1","07/06/2022 17:49:30","86605","12","task-fj2g",NA,"22343482","ucjf5it7","6586190",NA,"complete",NA,NA,"computer","Desktop or Laptop","Mac OS 10.15.7","Safari 15.4","1680x1050","1680x998",NA,"Closeness-1","4","Spreadsheet1","Spreadsheet1","1","1","1","Screen 1","buttonB","response_button_image","7837",NA,NA,"2.png","1","0","1","0",NA,NA,NA,NA,NA,"Instructions",NA,"1.png","2.png","3.png","4.png","5.png","6.png","7.png",NA,NA,NA,NA,NA,NA,NA,NA,"ucjf5it7"
"69","3","1654620571001","07/06/2022 16:49:31","1654620570907","1","07/06/2022 17:49:30","86605","12","task-fj2g",NA,"22343482","ucjf5it7","6586190",NA,"complete",NA,NA,"computer","Desktop or Laptop","Mac OS 10.15.7","Safari 15.4","1680x1050","1680x998",NA,"Closeness-1","4","Spreadsheet1",NA,NA,"END TASK",NA,NA,NA,NA,"7893",NA,NA,NA,NA,"0","1","0",NA,NA,NA,NA,NA,NA,NA,NA,NA,NA,NA,NA,NA,NA,NA,NA,NA,NA,NA,NA,NA,NA,"ucjf5it7"
"70","1","1654599464431","07/06/2022 10:57:44","1654599464304","1","07/06/2022 11:57:44","86605","12","task-fj2g",NA,"22331119","x15hufum","6582674",NA,"complete",NA,NA,"computer","Desktop or Laptop","Mac OS 10.15.7","Safari 15.4","1680x1050","1680x998",NA,"Closeness-1","4","Spreadsheet1",NA,NA,"BEGIN TASK",NA,NA,NA,NA,NA,NA,NA,NA,NA,"0","1","0",NA,NA,NA,NA,NA,NA,NA,NA,NA,NA,NA,NA,NA,NA,NA,NA,NA,NA,NA,NA,NA,NA,"x15hufum"
"71","2","1654599469606","07/06/2022 10:57:49","1654599469554","1","07/06/2022 11:57:49","86605","12","task-fj2g",NA,"22331119","x15hufum","6582674",NA,"complete",NA,NA,"computer","Desktop or Laptop","Mac OS 10.15.7","Safari 15.4","1680x1050","1680x998",NA,"Closeness-1","4","Spreadsheet1","Spreadsheet1","1","1","1","Screen 1","buttonB","response_button_image","5182",NA,NA,"2.png","1","0","1","0",NA,NA,NA,NA,NA,"Instructions",NA,"1.png","2.png","3.png","4.png","5.png","6.png","7.png",NA,NA,NA,NA,NA,NA,NA,NA,"x15hufum"
"72","3","1654599469655","07/06/2022 10:57:49","1654599469556","1","07/06/2022 11:57:49","86605","12","task-fj2g",NA,"22331119","x15hufum","6582674",NA,"complete",NA,NA,"computer","Desktop or Laptop","Mac OS 10.15.7","Safari 15.4","1680x1050","1680x998",NA,"Closeness-1","4","Spreadsheet1",NA,NA,"END TASK",NA,NA,NA,NA,"5252",NA,NA,NA,NA,"0","1","0",NA,NA,NA,NA,NA,NA,NA,NA,NA,NA,NA,NA,NA,NA,NA,NA,NA,NA,NA,NA,NA,NA,"x15hufum"
"73","1","1654604367583","07/06/2022 12:19:27","1654604367492","1","07/06/2022 13:19:27","86605","12","task-fj2g",NA,"22334033","wopxcyrw","6583401",NA,"complete",NA,NA,"computer","Desktop or Laptop","Mac OS 10.15.7","Safari 15.4","1680x1050","1680x998",NA,"Closeness-1","4","Spreadsheet1",NA,NA,"BEGIN TASK",NA,NA,NA,NA,NA,NA,NA,NA,NA,"0","1","0",NA,NA,NA,NA,NA,NA,NA,NA,NA,NA,NA,NA,NA,NA,NA,NA,NA,NA,NA,NA,NA,NA,"wopxcyrw"
"74","2","1654604373265","07/06/2022 12:19:33","1654604373210","1","07/06/2022 13:19:33","86605","12","task-fj2g",NA,"22334033","wopxcyrw","6583401",NA,"complete",NA,NA,"computer","Desktop or Laptop","Mac OS 10.15.7","Safari 15.4","1680x1050","1680x998",NA,"Closeness-1","4","Spreadsheet1","Spreadsheet1","1","1","1","Screen 1","buttonB","response_button_image","5634",NA,NA,"2.png","1","0","1","0",NA,NA,NA,NA,NA,"Instructions",NA,"1.png","2.png","3.png","4.png","5.png","6.png","7.png",NA,NA,NA,NA,NA,NA,NA,NA,"wopxcyrw"
"75","3","1654604373317","07/06/2022 12:19:33","1654604373213","1","07/06/2022 13:19:33","86605","12","task-fj2g",NA,"22334033","wopxcyrw","6583401",NA,"complete",NA,NA,"computer","Desktop or Laptop","Mac OS 10.15.7","Safari 15.4","1680x1050","1680x998",NA,"Closeness-1","4","Spreadsheet1",NA,NA,"END TASK",NA,NA,NA,NA,"5721",NA,NA,NA,NA,"0","1","0",NA,NA,NA,NA,NA,NA,NA,NA,NA,NA,NA,NA,NA,NA,NA,NA,NA,NA,NA,NA,NA,NA,"wopxcyrw"
"76","1","1654609922833","07/06/2022 13:52:02","1654609922690","1","07/06/2022 14:52:02","86605","12","task-fj2g",NA,"22336809","wyly5896","6584100",NA,"complete",NA,NA,"computer","Desktop or Laptop","Mac OS 10.15.7","Safari 15.4","1680x1050","1680x998",NA,"Closeness-1","4","Spreadsheet1",NA,NA,"BEGIN TASK",NA,NA,NA,NA,NA,NA,NA,NA,NA,"0","1","0",NA,NA,NA,NA,NA,NA,NA,NA,NA,NA,NA,NA,NA,NA,NA,NA,NA,NA,NA,NA,NA,NA,"wyly5896"
"77","2","1654609929711","07/06/2022 13:52:09","1654609929623","1","07/06/2022 14:52:09","86605","12","task-fj2g",NA,"22336809","wyly5896","6584100",NA,"complete",NA,NA,"computer","Desktop or Laptop","Mac OS 10.15.7","Safari 15.4","1680x1050","1680x998",NA,"Closeness-1","4","Spreadsheet1","Spreadsheet1","1","1","1","Screen 1","buttonB","response_button_image","6877",NA,NA,"2.png","1","0","1","0",NA,NA,NA,NA,NA,"Instructions",NA,"1.png","2.png","3.png","4.png","5.png","6.png","7.png",NA,NA,NA,NA,NA,NA,NA,NA,"wyly5896"
"78","3","1654609929781","07/06/2022 13:52:09","1654609929626","1","07/06/2022 14:52:09","86605","12","task-fj2g",NA,"22336809","wyly5896","6584100",NA,"complete",NA,NA,"computer","Desktop or Laptop","Mac OS 10.15.7","Safari 15.4","1680x1050","1680x998",NA,"Closeness-1","4","Spreadsheet1",NA,NA,"END TASK",NA,NA,NA,NA,"6936",NA,NA,NA,NA,"0","1","0",NA,NA,NA,NA,NA,NA,NA,NA,NA,NA,NA,NA,NA,NA,NA,NA,NA,NA,NA,NA,NA,NA,"wyly5896"
"79","1","1654620563104","07/06/2022 16:49:23","1654620563014","1","07/06/2022 17:49:23","86605","12","task-fj2g",NA,"22343482","ucjf5it7","6586190",NA,"complete",NA,NA,"computer","Desktop or Laptop","Mac OS 10.15.7","Safari 15.4","1680x1050","1680x998",NA,"Closeness-1","4","Spreadsheet1",NA,NA,"BEGIN TASK",NA,NA,NA,NA,NA,NA,NA,NA,NA,"0","1","0",NA,NA,NA,NA,NA,NA,NA,NA,NA,NA,NA,NA,NA,NA,NA,NA,NA,NA,NA,NA,NA,NA,"ucjf5it7"
"80","2","1654620570965","07/06/2022 16:49:30","1654620570904","1","07/06/2022 17:49:30","86605","12","task-fj2g",NA,"22343482","ucjf5it7","6586190",NA,"complete",NA,NA,"computer","Desktop or Laptop","Mac OS 10.15.7","Safari 15.4","1680x1050","1680x998",NA,"Closeness-1","4","Spreadsheet1","Spreadsheet1","1","1","1","Screen 1","buttonB","response_button_image","7837",NA,NA,"2.png","1","0","1","0",NA,NA,NA,NA,NA,"Instructions",NA,"1.png","2.png","3.png","4.png","5.png","6.png","7.png",NA,NA,NA,NA,NA,NA,NA,NA,"ucjf5it7"
"81","3","1654620571001","07/06/2022 16:49:31","1654620570907","1","07/06/2022 17:49:30","86605","12","task-fj2g",NA,"22343482","ucjf5it7","6586190",NA,"complete",NA,NA,"computer","Desktop or Laptop","Mac OS 10.15.7","Safari 15.4","1680x1050","1680x998",NA,"Closeness-1","4","Spreadsheet1",NA,NA,"END TASK",NA,NA,NA,NA,"7893",NA,NA,NA,NA,"0","1","0",NA,NA,NA,NA,NA,NA,NA,NA,NA,NA,NA,NA,NA,NA,NA,NA,NA,NA,NA,NA,NA,NA,"ucjf5it7"
"82","1","1654679989282","08/06/2022 09:19:49","1654679989187","1","08/06/2022 10:19:49","86605","12","task-fj2g",NA,"22353476","u4ckj0xb","6588751",NA,"complete",NA,NA,"computer","Desktop or Laptop","Mac OS 10.15.7","Safari 15.4","1680x1050","1680x998",NA,"Closeness-1","4","Spreadsheet1",NA,NA,"BEGIN TASK",NA,NA,NA,NA,NA,NA,NA,NA,NA,"0","1","0",NA,NA,NA,NA,NA,NA,NA,NA,NA,NA,NA,NA,NA,NA,NA,NA,NA,NA,NA,NA,NA,NA,"u4ckj0xb"
"83","2","1654679993820","08/06/2022 09:19:53","1654679993763","1","08/06/2022 10:19:53","86605","12","task-fj2g",NA,"22353476","u4ckj0xb","6588751",NA,"complete",NA,NA,"computer","Desktop or Laptop","Mac OS 10.15.7","Safari 15.4","1680x1050","1680x998",NA,"Closeness-1","4","Spreadsheet1","Spreadsheet1","1","1","1","Screen 1","buttonB","response_button_image","4490",NA,NA,"2.png","1","0","1","0",NA,NA,NA,NA,NA,"Instructions",NA,"1.png","2.png","3.png","4.png","5.png","6.png","7.png",NA,NA,NA,NA,NA,NA,NA,NA,"u4ckj0xb"
"84","3","1654679993890","08/06/2022 09:19:53","1654679993765","1","08/06/2022 10:19:53","86605","12","task-fj2g",NA,"22353476","u4ckj0xb","6588751",NA,"complete",NA,NA,"computer","Desktop or Laptop","Mac OS 10.15.7","Safari 15.4","1680x1050","1680x998",NA,"Closeness-1","4","Spreadsheet1",NA,NA,"END TASK",NA,NA,NA,NA,"4578",NA,NA,NA,NA,"0","1","0",NA,NA,NA,NA,NA,NA,NA,NA,NA,NA,NA,NA,NA,NA,NA,NA,NA,NA,NA,NA,NA,NA,"u4ckj0xb"
"85","1","1654685583688","08/06/2022 10:53:03","1654685583588","1","08/06/2022 11:53:03","86605","12","task-fj2g",NA,"22355357","rcburgqm","6589320",NA,"complete",NA,NA,"computer","Desktop or Laptop","Mac OS 10.15.7","Safari 15.4","1680x1050","1680x998",NA,"Closeness-1","4","Spreadsheet1",NA,NA,"BEGIN TASK",NA,NA,NA,NA,NA,NA,NA,NA,NA,"0","1","0",NA,NA,NA,NA,NA,NA,NA,NA,NA,NA,NA,NA,NA,NA,NA,NA,NA,NA,NA,NA,NA,NA,"rcburgqm"
"86","2","1654685593179","08/06/2022 10:53:13","1654685593119","1","08/06/2022 11:53:13","86605","12","task-fj2g",NA,"22355357","rcburgqm","6589320",NA,"complete",NA,NA,"computer","Desktop or Laptop","Mac OS 10.15.7","Safari 15.4","1680x1050","1680x998",NA,"Closeness-1","4","Spreadsheet1","Spreadsheet1","1","1","1","Screen 1","buttonC","response_button_image","9449",NA,NA,"3.png","1","0","1","0",NA,NA,NA,NA,NA,"Instructions",NA,"1.png","2.png","3.png","4.png","5.png","6.png","7.png",NA,NA,NA,NA,NA,NA,NA,NA,"rcburgqm"
"87","3","1654685593232","08/06/2022 10:53:13","1654685593122","1","08/06/2022 11:53:13","86605","12","task-fj2g",NA,"22355357","rcburgqm","6589320",NA,"complete",NA,NA,"computer","Desktop or Laptop","Mac OS 10.15.7","Safari 15.4","1680x1050","1680x998",NA,"Closeness-1","4","Spreadsheet1",NA,NA,"END TASK",NA,NA,NA,NA,"9534",NA,NA,NA,NA,"0","1","0",NA,NA,NA,NA,NA,NA,NA,NA,NA,NA,NA,NA,NA,NA,NA,NA,NA,NA,NA,NA,NA,NA,"rcburgqm"
"88","1","1654691194396","08/06/2022 12:26:34","1654691194300","1","08/06/2022 13:26:34","86605","12","task-fj2g",NA,"22357965","p1el4un1","6590094",NA,"complete",NA,NA,"computer","Desktop or Laptop","Mac OS 10.15.7","Safari 15.4","1680x1050","1680x998",NA,"Closeness-1","4","Spreadsheet1",NA,NA,"BEGIN TASK",NA,NA,NA,NA,NA,NA,NA,NA,NA,"0","1","0",NA,NA,NA,NA,NA,NA,NA,NA,NA,NA,NA,NA,NA,NA,NA,NA,NA,NA,NA,NA,NA,NA,"p1el4un1"
"89","2","1654691198894","08/06/2022 12:26:38","1654691198790","1","08/06/2022 13:26:38","86605","12","task-fj2g",NA,"22357965","p1el4un1","6590094",NA,"complete",NA,NA,"computer","Desktop or Laptop","Mac OS 10.15.7","Safari 15.4","1680x1050","1680x998",NA,"Closeness-1","4","Spreadsheet1","Spreadsheet1","1","1","1","Screen 1","buttonA","response_button_image","4454",NA,NA,"1.png","1","0","1","0",NA,NA,NA,NA,NA,"Instructions",NA,"1.png","2.png","3.png","4.png","5.png","6.png","7.png",NA,NA,NA,NA,NA,NA,NA,NA,"p1el4un1"
"90","3","1654691198938","08/06/2022 12:26:38","1654691198793","1","08/06/2022 13:26:38","86605","12","task-fj2g",NA,"22357965","p1el4un1","6590094",NA,"complete",NA,NA,"computer","Desktop or Laptop","Mac OS 10.15.7","Safari 15.4","1680x1050","1680x998",NA,"Closeness-1","4","Spreadsheet1",NA,NA,"END TASK",NA,NA,NA,NA,"4493",NA,NA,NA,NA,"0","1","0",NA,NA,NA,NA,NA,NA,NA,NA,NA,NA,NA,NA,NA,NA,NA,NA,NA,NA,NA,NA,NA,NA,"p1el4un1"
"91","1","1654696229986","08/06/2022 13:50:29","1654696229858","1","08/06/2022 14:50:29","86605","12","task-fj2g",NA,"22359779","7ca8udou","6590644",NA,"complete",NA,NA,"computer","Desktop or Laptop","Mac OS 10.15.7","Safari 15.4","1680x1050","1680x998",NA,"Closeness-1","4","Spreadsheet1",NA,NA,"BEGIN TASK",NA,NA,NA,NA,NA,NA,NA,NA,NA,"0","1","0",NA,NA,NA,NA,NA,NA,NA,NA,NA,NA,NA,NA,NA,NA,NA,NA,NA,NA,NA,NA,NA,NA,"7ca8udou"
"92","2","1654696243449","08/06/2022 13:50:43","1654696243381","1","08/06/2022 14:50:43","86605","12","task-fj2g",NA,"22359779","7ca8udou","6590644",NA,"complete",NA,NA,"computer","Desktop or Laptop","Mac OS 10.15.7","Safari 15.4","1680x1050","1680x998",NA,"Closeness-1","4","Spreadsheet1","Spreadsheet1","1","1","1","Screen 1","buttonC","response_button_image","13470",NA,NA,"3.png","1","0","1","0",NA,NA,NA,NA,NA,"Instructions",NA,"1.png","2.png","3.png","4.png","5.png","6.png","7.png",NA,NA,NA,NA,NA,NA,NA,NA,"7ca8udou"
"93","3","1654696243495","08/06/2022 13:50:43","1654696243384","1","08/06/2022 14:50:43","86605","12","task-fj2g",NA,"22359779","7ca8udou","6590644",NA,"complete",NA,NA,"computer","Desktop or Laptop","Mac OS 10.15.7","Safari 15.4","1680x1050","1680x998",NA,"Closeness-1","4","Spreadsheet1",NA,NA,"END TASK",NA,NA,NA,NA,"13526",NA,NA,NA,NA,"0","1","0",NA,NA,NA,NA,NA,NA,NA,NA,NA,NA,NA,NA,NA,NA,NA,NA,NA,NA,NA,NA,NA,NA,"7ca8udou"
"94","1","1654701844648","08/06/2022 15:24:04","1654701844522","1","08/06/2022 16:24:04","86605","12","task-fj2g",NA,"22361754","fbdvz2jm","6591244",NA,"complete",NA,NA,"computer","Desktop or Laptop","Mac OS 10.15.7","Safari 15.4","1680x1050","1680x998",NA,"Closeness-1","4","Spreadsheet1",NA,NA,"BEGIN TASK",NA,NA,NA,NA,NA,NA,NA,NA,NA,"0","1","0",NA,NA,NA,NA,NA,NA,NA,NA,NA,NA,NA,NA,NA,NA,NA,NA,NA,NA,NA,NA,NA,NA,"fbdvz2jm"
"95","2","1654701858671","08/06/2022 15:24:18","1654701858603","1","08/06/2022 16:24:18","86605","12","task-fj2g",NA,"22361754","fbdvz2jm","6591244",NA,"complete",NA,NA,"computer","Desktop or Laptop","Mac OS 10.15.7","Safari 15.4","1680x1050","1680x998",NA,"Closeness-1","4","Spreadsheet1","Spreadsheet1","1","1","1","Screen 1","buttonC","response_button_image","14033",NA,NA,"3.png","1","0","1","0",NA,NA,NA,NA,NA,"Instructions",NA,"1.png","2.png","3.png","4.png","5.png","6.png","7.png",NA,NA,NA,NA,NA,NA,NA,NA,"fbdvz2jm"
"96","3","1654701858709","08/06/2022 15:24:18","1654701858605","1","08/06/2022 16:24:18","86605","12","task-fj2g",NA,"22361754","fbdvz2jm","6591244",NA,"complete",NA,NA,"computer","Desktop or Laptop","Mac OS 10.15.7","Safari 15.4","1680x1050","1680x998",NA,"Closeness-1","4","Spreadsheet1",NA,NA,"END TASK",NA,NA,NA,NA,"14083",NA,NA,NA,NA,"0","1","0",NA,NA,NA,NA,NA,NA,NA,NA,NA,NA,NA,NA,NA,NA,NA,NA,NA,NA,NA,NA,NA,NA,"fbdvz2jm"
"97","1","1654707384112","08/06/2022 16:56:24","1654707384000","1","08/06/2022 17:56:24","86605","12","task-fj2g",NA,"22363972","lcoa0ulz","6591969",NA,"complete",NA,NA,"computer","Desktop or Laptop","Mac OS 10.15.7","Safari 15.4","1680x1050","1680x998",NA,"Closeness-1","4","Spreadsheet1",NA,NA,"BEGIN TASK",NA,NA,NA,NA,NA,NA,NA,NA,NA,"0","1","0",NA,NA,NA,NA,NA,NA,NA,NA,NA,NA,NA,NA,NA,NA,NA,NA,NA,NA,NA,NA,NA,NA,"lcoa0ulz"
"98","2","1654707395763","08/06/2022 16:56:35","1654707395714","1","08/06/2022 17:56:35","86605","12","task-fj2g",NA,"22363972","lcoa0ulz","6591969",NA,"complete",NA,NA,"computer","Desktop or Laptop","Mac OS 10.15.7","Safari 15.4","1680x1050","1680x998",NA,"Closeness-1","4","Spreadsheet1","Spreadsheet1","1","1","1","Screen 1","buttonA","response_button_image","11669",NA,NA,"1.png","1","0","1","0",NA,NA,NA,NA,NA,"Instructions",NA,"1.png","2.png","3.png","4.png","5.png","6.png","7.png",NA,NA,NA,NA,NA,NA,NA,NA,"lcoa0ulz"
"99","3","1654707395821","08/06/2022 16:56:35","1654707395717","1","08/06/2022 17:56:35","86605","12","task-fj2g",NA,"22363972","lcoa0ulz","6591969",NA,"complete",NA,NA,"computer","Desktop or Laptop","Mac OS 10.15.7","Safari 15.4","1680x1050","1680x998",NA,"Closeness-1","4","Spreadsheet1",NA,NA,"END TASK",NA,NA,NA,NA,"11717",NA,NA,NA,NA,"0","1","0",NA,NA,NA,NA,NA,NA,NA,NA,NA,NA,NA,NA,NA,NA,NA,NA,NA,NA,NA,NA,NA,NA,"lcoa0ulz"
"100","1","1654619955067","07/06/2022 16:39:15","1654619954965","1","07/06/2022 17:39:14","86605","12","task-gb9b",NA,"22343210","ucjf5it7","6586190",NA,"complete",NA,NA,"computer","Desktop or Laptop","Mac OS 10.15.7","Safari 15.4","1680x1050","1680x998",NA,"Intro before training and the 1st visitor","8","Spreadsheet1",NA,NA,"BEGIN TASK",NA,NA,NA,NA,NA,NA,NA,NA,NA,"0","1","0",NA,NA,NA,NA,NA,NA,NA,NA,NA,NA,NA,NA,NA,NA,NA,NA,NA,NA,NA,NA,NA,NA,"ucjf5it7"
"101","2","1654620497027","07/06/2022 16:48:17","1654620496888","1","07/06/2022 17:48:16","86605","12","task-gb9b",NA,"22343210","ucjf5it7","6586190",NA,"complete",NA,NA,"computer","Desktop or Laptop","Mac OS 10.15.7","Safari 15.4","1680x1050","1680x998",NA,"Intro before training and the 1st visitor","8","Spreadsheet1","Spreadsheet1","1","1","1","Screen 1","advancementZone","continue_button","158287",NA,NA,NA,NA,"0","1","0",NA,NA,NA,NA,NA,"Intro 2",NA,NA,NA,NA,NA,NA,NA,NA,NA,NA,NA,NA,NA,NA,NA,NA,"ucjf5it7"
"102","3","1654620497069","07/06/2022 16:48:17","1654620496892","1","07/06/2022 17:48:16","86605","12","task-gb9b",NA,"22343210","ucjf5it7","6586190",NA,"complete",NA,NA,"computer","Desktop or Laptop","Mac OS 10.15.7","Safari 15.4","1680x1050","1680x998",NA,"Intro before training and the 1st visitor","8","Spreadsheet1",NA,NA,"END TASK",NA,NA,NA,NA,"541927",NA,NA,NA,NA,"0","1","0",NA,NA,NA,NA,NA,NA,NA,NA,NA,NA,NA,NA,NA,NA,NA,NA,NA,NA,NA,NA,NA,NA,"ucjf5it7"
"103","1","1654598634977","07/06/2022 10:43:54","1654598634864","1","07/06/2022 11:43:54","86605","12","task-gb9b",NA,"22329932","x15hufum","6582674",NA,"complete",NA,NA,"computer","Desktop or Laptop","Mac OS 10.15.7","Safari 15.4","1680x1050","1680x998",NA,"Intro before training and the 1st visitor","8","Spreadsheet1",NA,NA,"BEGIN TASK",NA,NA,NA,NA,NA,NA,NA,NA,NA,"0","1","0",NA,NA,NA,NA,NA,NA,NA,NA,NA,NA,NA,NA,NA,NA,NA,NA,NA,NA,NA,NA,NA,NA,"x15hufum"
"104","2","1654599374963","07/06/2022 10:56:14","1654599344889","1","07/06/2022 11:55:44","86605","12","task-gb9b",NA,"22329932","x15hufum","6582674",NA,"complete",NA,NA,"computer","Desktop or Laptop","Mac OS 10.15.7","Safari 15.4","1680x1050","1680x998",NA,"Intro before training and the 1st visitor","8","Spreadsheet1","Spreadsheet1","1","1","1","Screen 1","advancementZone","continue_button","43984",NA,NA,NA,NA,"0","1","0",NA,NA,NA,NA,NA,"Intro 2",NA,NA,NA,NA,NA,NA,NA,NA,NA,NA,NA,NA,NA,NA,NA,NA,"x15hufum"
"105","3","1654599374963","07/06/2022 10:56:14","1654599344900","1","07/06/2022 11:55:44","86605","12","task-gb9b",NA,"22329932","x15hufum","6582674",NA,"complete",NA,NA,"computer","Desktop or Laptop","Mac OS 10.15.7","Safari 15.4","1680x1050","1680x998",NA,"Intro before training and the 1st visitor","8","Spreadsheet1",NA,NA,"END TASK",NA,NA,NA,NA,"710032",NA,NA,NA,NA,"0","1","0",NA,NA,NA,NA,NA,NA,NA,NA,NA,NA,NA,NA,NA,NA,NA,NA,NA,NA,NA,NA,NA,NA,"x15hufum"
"106","1","1654603642553","07/06/2022 12:07:22","1654603642480","1","07/06/2022 13:07:22","86605","12","task-gb9b",NA,"22333564","wopxcyrw","6583401",NA,"complete",NA,NA,"computer","Desktop or Laptop","Mac OS 10.15.7","Safari 15.4","1680x1050","1680x998",NA,"Intro before training and the 1st visitor","8","Spreadsheet1",NA,NA,"BEGIN TASK",NA,NA,NA,NA,NA,NA,NA,NA,NA,"0","1","0",NA,NA,NA,NA,NA,NA,NA,NA,NA,NA,NA,NA,NA,NA,NA,NA,NA,NA,NA,NA,NA,NA,"wopxcyrw"
"107","2","1654604305448","07/06/2022 12:18:25","1654604305334","1","07/06/2022 13:18:25","86605","12","task-gb9b",NA,"22333564","wopxcyrw","6583401",NA,"complete",NA,NA,"computer","Desktop or Laptop","Mac OS 10.15.7","Safari 15.4","1680x1050","1680x998",NA,"Intro before training and the 1st visitor","8","Spreadsheet1","Spreadsheet1","1","1","1","Screen 1","advancementZone","continue_button","131932",NA,NA,NA,NA,"0","1","0",NA,NA,NA,NA,NA,"Intro 2",NA,NA,NA,NA,NA,NA,NA,NA,NA,NA,NA,NA,NA,NA,NA,NA,"wopxcyrw"
"108","3","1654604305494","07/06/2022 12:18:25","1654604305338","1","07/06/2022 13:18:25","86605","12","task-gb9b",NA,"22333564","wopxcyrw","6583401",NA,"complete",NA,NA,"computer","Desktop or Laptop","Mac OS 10.15.7","Safari 15.4","1680x1050","1680x998",NA,"Intro before training and the 1st visitor","8","Spreadsheet1",NA,NA,"END TASK",NA,NA,NA,NA,"662858",NA,NA,NA,NA,"0","1","0",NA,NA,NA,NA,NA,NA,NA,NA,NA,NA,NA,NA,NA,NA,NA,NA,NA,NA,NA,NA,NA,NA,"wopxcyrw"
"109","1","1654609170891","07/06/2022 13:39:30","1654609170794","1","07/06/2022 14:39:30","86605","12","task-gb9b",NA,"22336491","wyly5896","6584100",NA,"complete",NA,NA,"computer","Desktop or Laptop","Mac OS 10.15.7","Safari 15.4","1680x1050","1680x998",NA,"Intro before training and the 1st visitor","8","Spreadsheet1",NA,NA,"BEGIN TASK",NA,NA,NA,NA,NA,NA,NA,NA,NA,"0","1","0",NA,NA,NA,NA,NA,NA,NA,NA,NA,NA,NA,NA,NA,NA,NA,NA,NA,NA,NA,NA,NA,NA,"wyly5896"
"110","2","1654609176702","07/06/2022 13:39:36","1654609176621","1","07/06/2022 14:39:36","86605","12","task-gb9b",NA,"22336491","wyly5896","6584100",NA,"complete",NA,NA,"computer","Desktop or Laptop","Mac OS 10.15.7","Safari 15.4","1680x1050","1680x998",NA,"Intro before training and the 1st visitor","8","Spreadsheet1","Spreadsheet1","1","1","1","Screen 1","advancementZone","continue_button","5799",NA,NA,NA,NA,"0","1","0",NA,NA,NA,NA,NA,"Intro 2",NA,NA,NA,NA,NA,NA,NA,NA,NA,NA,NA,NA,NA,NA,NA,NA,"wyly5896"
"111","3","1654609176767","07/06/2022 13:39:36","1654609176624","1","07/06/2022 14:39:36","86605","12","task-gb9b",NA,"22336491","wyly5896","6584100",NA,"complete",NA,NA,"computer","Desktop or Laptop","Mac OS 10.15.7","Safari 15.4","1680x1050","1680x998",NA,"Intro before training and the 1st visitor","8","Spreadsheet1",NA,NA,"END TASK",NA,NA,NA,NA,"5830",NA,NA,NA,NA,"0","1","0",NA,NA,NA,NA,NA,NA,NA,NA,NA,NA,NA,NA,NA,NA,NA,NA,NA,NA,NA,NA,NA,NA,"wyly5896"
"112","1","1654619955067","07/06/2022 16:39:15","1654619954965","1","07/06/2022 17:39:14","86605","12","task-gb9b",NA,"22343210","ucjf5it7","6586190",NA,"complete",NA,NA,"computer","Desktop or Laptop","Mac OS 10.15.7","Safari 15.4","1680x1050","1680x998",NA,"Intro before training and the 1st visitor","8","Spreadsheet1",NA,NA,"BEGIN TASK",NA,NA,NA,NA,NA,NA,NA,NA,NA,"0","1","0",NA,NA,NA,NA,NA,NA,NA,NA,NA,NA,NA,NA,NA,NA,NA,NA,NA,NA,NA,NA,NA,NA,"ucjf5it7"
"113","2","1654620497027","07/06/2022 16:48:17","1654620496888","1","07/06/2022 17:48:16","86605","12","task-gb9b",NA,"22343210","ucjf5it7","6586190",NA,"complete",NA,NA,"computer","Desktop or Laptop","Mac OS 10.15.7","Safari 15.4","1680x1050","1680x998",NA,"Intro before training and the 1st visitor","8","Spreadsheet1","Spreadsheet1","1","1","1","Screen 1","advancementZone","continue_button","158287",NA,NA,NA,NA,"0","1","0",NA,NA,NA,NA,NA,"Intro 2",NA,NA,NA,NA,NA,NA,NA,NA,NA,NA,NA,NA,NA,NA,NA,NA,"ucjf5it7"
"114","3","1654620497069","07/06/2022 16:48:17","1654620496892","1","07/06/2022 17:48:16","86605","12","task-gb9b",NA,"22343210","ucjf5it7","6586190",NA,"complete",NA,NA,"computer","Desktop or Laptop","Mac OS 10.15.7","Safari 15.4","1680x1050","1680x998",NA,"Intro before training and the 1st visitor","8","Spreadsheet1",NA,NA,"END TASK",NA,NA,NA,NA,"541927",NA,NA,NA,NA,"0","1","0",NA,NA,NA,NA,NA,NA,NA,NA,NA,NA,NA,NA,NA,NA,NA,NA,NA,NA,NA,NA,NA,NA,"ucjf5it7"
"115","1","1654679269669","08/06/2022 09:07:49","1654679269522","1","08/06/2022 10:07:49","86605","12","task-gb9b",NA,"22353220","u4ckj0xb","6588751",NA,"complete",NA,NA,"computer","Desktop or Laptop","Mac OS 10.15.7","Safari 15.4","1680x1050","1680x998",NA,"Intro before training and the 1st visitor","8","Spreadsheet1",NA,NA,"BEGIN TASK",NA,NA,NA,NA,NA,NA,NA,NA,NA,"0","1","0",NA,NA,NA,NA,NA,NA,NA,NA,NA,NA,NA,NA,NA,NA,NA,NA,NA,NA,NA,NA,NA,NA,"u4ckj0xb"
"116","2","1654679915742","08/06/2022 09:18:35","1654679915612","1","08/06/2022 10:18:35","86605","12","task-gb9b",NA,"22353220","u4ckj0xb","6588751",NA,"complete",NA,NA,"computer","Desktop or Laptop","Mac OS 10.15.7","Safari 15.4","1680x1050","1680x998",NA,"Intro before training and the 1st visitor","8","Spreadsheet1","Spreadsheet1","1","1","1","Screen 1","advancementZone","continue_button","168644",NA,NA,NA,NA,"0","1","0",NA,NA,NA,NA,NA,"Intro 2",NA,NA,NA,NA,NA,NA,NA,NA,NA,NA,NA,NA,NA,NA,NA,NA,"u4ckj0xb"
"117","3","1654679915823","08/06/2022 09:18:35","1654679915617","1","08/06/2022 10:18:35","86605","12","task-gb9b",NA,"22353220","u4ckj0xb","6588751",NA,"complete",NA,NA,"computer","Desktop or Laptop","Mac OS 10.15.7","Safari 15.4","1680x1050","1680x998",NA,"Intro before training and the 1st visitor","8","Spreadsheet1",NA,NA,"END TASK",NA,NA,NA,NA,"646096",NA,NA,NA,NA,"0","1","0",NA,NA,NA,NA,NA,NA,NA,NA,NA,NA,NA,NA,NA,NA,NA,NA,NA,NA,NA,NA,NA,NA,"u4ckj0xb"
"118","1","1654684905329","08/06/2022 10:41:45","1654684905229","1","08/06/2022 11:41:45","86605","12","task-gb9b",NA,"22355114","rcburgqm","6589320",NA,"complete",NA,NA,"computer","Desktop or Laptop","Mac OS 10.15.7","Safari 15.4","1680x1050","1680x998",NA,"Intro before training and the 1st visitor","8","Spreadsheet1",NA,NA,"BEGIN TASK",NA,NA,NA,NA,NA,NA,NA,NA,NA,"0","1","0",NA,NA,NA,NA,NA,NA,NA,NA,NA,NA,NA,NA,NA,NA,NA,NA,NA,NA,NA,NA,NA,NA,"rcburgqm"
"119","2","1654685499336","08/06/2022 10:51:39","1654685499021","1","08/06/2022 11:51:39","86605","12","task-gb9b",NA,"22355114","rcburgqm","6589320",NA,"complete",NA,NA,"computer","Desktop or Laptop","Mac OS 10.15.7","Safari 15.4","1680x1050","1680x998",NA,"Intro before training and the 1st visitor","8","Spreadsheet1","Spreadsheet1","1","1","1","Screen 1","advancementZone","continue_button","177050",NA,NA,NA,NA,"0","1","0",NA,NA,NA,NA,NA,"Intro 2",NA,NA,NA,NA,NA,NA,NA,NA,NA,NA,NA,NA,NA,NA,NA,NA,"rcburgqm"
"120","3","1654685499555","08/06/2022 10:51:39","1654685499024","1","08/06/2022 11:51:39","86605","12","task-gb9b",NA,"22355114","rcburgqm","6589320",NA,"complete",NA,NA,"computer","Desktop or Laptop","Mac OS 10.15.7","Safari 15.4","1680x1050","1680x998",NA,"Intro before training and the 1st visitor","8","Spreadsheet1",NA,NA,"END TASK",NA,NA,NA,NA,"593796",NA,NA,NA,NA,"0","1","0",NA,NA,NA,NA,NA,NA,NA,NA,NA,NA,NA,NA,NA,NA,NA,NA,NA,NA,NA,NA,NA,NA,"rcburgqm"
"121","1","1654690464179","08/06/2022 12:14:24","1654690464073","1","08/06/2022 13:14:24","86605","12","task-gb9b",NA,"22357680","p1el4un1","6590094",NA,"complete",NA,NA,"computer","Desktop or Laptop","Mac OS 10.15.7","Safari 15.4","1680x1050","1680x998",NA,"Intro before training and the 1st visitor","8","Spreadsheet1",NA,NA,"BEGIN TASK",NA,NA,NA,NA,NA,NA,NA,NA,NA,"0","1","0",NA,NA,NA,NA,NA,NA,NA,NA,NA,NA,NA,NA,NA,NA,NA,NA,NA,NA,NA,NA,NA,NA,"p1el4un1"
"122","2","1654691096999","08/06/2022 12:24:56","1654691096872","1","08/06/2022 13:24:56","86605","12","task-gb9b",NA,"22357680","p1el4un1","6590094",NA,"complete",NA,NA,"computer","Desktop or Laptop","Mac OS 10.15.7","Safari 15.4","1680x1050","1680x998",NA,"Intro before training and the 1st visitor","8","Spreadsheet1","Spreadsheet1","1","1","1","Screen 1","advancementZone","continue_button","438103",NA,NA,NA,NA,"0","1","0",NA,NA,NA,NA,NA,"Intro 2",NA,NA,NA,NA,NA,NA,NA,NA,NA,NA,NA,NA,NA,NA,NA,NA,"p1el4un1"
"123","3","1654691097068","08/06/2022 12:24:57","1654691096876","1","08/06/2022 13:24:56","86605","12","task-gb9b",NA,"22357680","p1el4un1","6590094",NA,"complete",NA,NA,"computer","Desktop or Laptop","Mac OS 10.15.7","Safari 15.4","1680x1050","1680x998",NA,"Intro before training and the 1st visitor","8","Spreadsheet1",NA,NA,"END TASK",NA,NA,NA,NA,"632803",NA,NA,NA,NA,"0","1","0",NA,NA,NA,NA,NA,NA,NA,NA,NA,NA,NA,NA,NA,NA,NA,NA,NA,NA,NA,NA,NA,NA,"p1el4un1"
"124","1","1654695581232","08/06/2022 13:39:41","1654695581119","1","08/06/2022 14:39:41","86605","12","task-gb9b",NA,"22359570","7ca8udou","6590644",NA,"complete",NA,NA,"computer","Desktop or Laptop","Mac OS 10.15.7","Safari 15.4","1680x1050","1680x998",NA,"Intro before training and the 1st visitor","8","Spreadsheet1",NA,NA,"BEGIN TASK",NA,NA,NA,NA,NA,NA,NA,NA,NA,"0","1","0",NA,NA,NA,NA,NA,NA,NA,NA,NA,NA,NA,NA,NA,NA,NA,NA,NA,NA,NA,NA,NA,NA,"7ca8udou"
"125","2","1654695590856","08/06/2022 13:39:50","1654695590777","1","08/06/2022 14:39:50","86605","12","task-gb9b",NA,"22359570","7ca8udou","6590644",NA,"complete",NA,NA,"computer","Desktop or Laptop","Mac OS 10.15.7","Safari 15.4","1680x1050","1680x998",NA,"Intro before training and the 1st visitor","8","Spreadsheet1","Spreadsheet1","1","1","1","Screen 1","advancementZone","continue_button","9637",NA,NA,NA,NA,"0","1","0",NA,NA,NA,NA,NA,"Intro 2",NA,NA,NA,NA,NA,NA,NA,NA,NA,NA,NA,NA,NA,NA,NA,NA,"7ca8udou"
"126","3","1654695590918","08/06/2022 13:39:50","1654695590780","1","08/06/2022 14:39:50","86605","12","task-gb9b",NA,"22359570","7ca8udou","6590644",NA,"complete",NA,NA,"computer","Desktop or Laptop","Mac OS 10.15.7","Safari 15.4","1680x1050","1680x998",NA,"Intro before training and the 1st visitor","8","Spreadsheet1",NA,NA,"END TASK",NA,NA,NA,NA,"9661",NA,NA,NA,NA,"0","1","0",NA,NA,NA,NA,NA,NA,NA,NA,NA,NA,NA,NA,NA,NA,NA,NA,NA,NA,NA,NA,NA,NA,"7ca8udou"
"127","1","1654701064698","08/06/2022 15:11:04","1654701064559","1","08/06/2022 16:11:04","86605","12","task-gb9b",NA,"22361472","fbdvz2jm","6591244",NA,"complete",NA,NA,"computer","Desktop or Laptop","Mac OS 10.15.7","Safari 15.4","1680x1050","1680x998",NA,"Intro before training and the 1st visitor","8","Spreadsheet1",NA,NA,"BEGIN TASK",NA,NA,NA,NA,NA,NA,NA,NA,NA,"0","1","0",NA,NA,NA,NA,NA,NA,NA,NA,NA,NA,NA,NA,NA,NA,NA,NA,NA,NA,NA,NA,NA,NA,"fbdvz2jm"
"128","2","1654701739619","08/06/2022 15:22:19","1654701739484","1","08/06/2022 16:22:19","86605","12","task-gb9b",NA,"22361472","fbdvz2jm","6591244",NA,"complete",NA,NA,"computer","Desktop or Laptop","Mac OS 10.15.7","Safari 15.4","1680x1050","1680x998",NA,"Intro before training and the 1st visitor","8","Spreadsheet1","Spreadsheet1","1","1","1","Screen 1","advancementZone","continue_button","674882",NA,NA,NA,NA,"0","1","0",NA,NA,NA,NA,NA,"Intro 2",NA,NA,NA,NA,NA,NA,NA,NA,NA,NA,NA,NA,NA,NA,NA,NA,"fbdvz2jm"
"129","3","1654701739676","08/06/2022 15:22:19","1654701739493","1","08/06/2022 16:22:19","86605","12","task-gb9b",NA,"22361472","fbdvz2jm","6591244",NA,"complete",NA,NA,"computer","Desktop or Laptop","Mac OS 10.15.7","Safari 15.4","1680x1050","1680x998",NA,"Intro before training and the 1st visitor","8","Spreadsheet1",NA,NA,"END TASK",NA,NA,NA,NA,"674934",NA,NA,NA,NA,"0","1","0",NA,NA,NA,NA,NA,NA,NA,NA,NA,NA,NA,NA,NA,NA,NA,NA,NA,NA,NA,NA,NA,NA,"fbdvz2jm"
"130","1","1654706675666","08/06/2022 16:44:35","1654706675559","1","08/06/2022 17:44:35","86605","12","task-gb9b",NA,"22363491","lcoa0ulz","6591969",NA,"complete",NA,NA,"computer","Desktop or Laptop","Mac OS 10.15.7","Safari 15.4","1680x1050","1680x998",NA,"Intro before training and the 1st visitor","8","Spreadsheet1",NA,NA,"BEGIN TASK",NA,NA,NA,NA,NA,NA,NA,NA,NA,"0","1","0",NA,NA,NA,NA,NA,NA,NA,NA,NA,NA,NA,NA,NA,NA,NA,NA,NA,NA,NA,NA,NA,NA,"lcoa0ulz"
"131","2","1654707303962","08/06/2022 16:55:03","1654707303831","1","08/06/2022 17:55:03","86605","12","task-gb9b",NA,"22363491","lcoa0ulz","6591969",NA,"complete",NA,NA,"computer","Desktop or Laptop","Mac OS 10.15.7","Safari 15.4","1680x1050","1680x998",NA,"Intro before training and the 1st visitor","8","Spreadsheet1","Spreadsheet1","1","1","1","Screen 1","advancementZone","continue_button","628229",NA,NA,NA,NA,"0","1","0",NA,NA,NA,NA,NA,"Intro 2",NA,NA,NA,NA,NA,NA,NA,NA,NA,NA,NA,NA,NA,NA,NA,NA,"lcoa0ulz"
"132","3","1654707304037","08/06/2022 16:55:04","1654707303836","1","08/06/2022 17:55:03","86605","12","task-gb9b",NA,"22363491","lcoa0ulz","6591969",NA,"complete",NA,NA,"computer","Desktop or Laptop","Mac OS 10.15.7","Safari 15.4","1680x1050","1680x998",NA,"Intro before training and the 1st visitor","8","Spreadsheet1",NA,NA,"END TASK",NA,NA,NA,NA,"628277",NA,NA,NA,NA,"0","1","0",NA,NA,NA,NA,NA,NA,NA,NA,NA,NA,NA,NA,NA,NA,NA,NA,NA,NA,NA,NA,NA,NA,"lcoa0ulz"
"133","1","1654621380906","07/06/2022 17:03:00","1654621380811","1","07/06/2022 18:03:00","86605","12","task-ow85",NA,"22343945","ucjf5it7","6586190",NA,"complete",NA,NA,"computer","Desktop or Laptop","Mac OS 10.15.7","Safari 15.4","1680x1050","1680x998",NA,"Closeness-3","5","Spreadsheet1",NA,NA,"BEGIN TASK",NA,NA,NA,NA,NA,NA,NA,NA,NA,"0","1","0",NA,NA,NA,NA,NA,NA,NA,NA,NA,NA,NA,NA,NA,NA,NA,NA,NA,NA,NA,NA,NA,NA,"ucjf5it7"
"134","2","1654621383434","07/06/2022 17:03:03","1654621383370","1","07/06/2022 18:03:03","86605","12","task-ow85",NA,"22343945","ucjf5it7","6586190",NA,"complete",NA,NA,"computer","Desktop or Laptop","Mac OS 10.15.7","Safari 15.4","1680x1050","1680x998",NA,"Closeness-3","5","Spreadsheet1","Spreadsheet1","1","1","1","Screen 1","buttonA","response_button_image","2513",NA,NA,"1.png","1","0","1","0",NA,NA,NA,NA,NA,"Instructions",NA,"1.png","2.png","3.png","4.png","5.png","6.png","7.png",NA,NA,NA,NA,NA,NA,NA,NA,"ucjf5it7"
"135","3","1654621383484","07/06/2022 17:03:03","1654621383372","1","07/06/2022 18:03:03","86605","12","task-ow85",NA,"22343945","ucjf5it7","6586190",NA,"complete",NA,NA,"computer","Desktop or Laptop","Mac OS 10.15.7","Safari 15.4","1680x1050","1680x998",NA,"Closeness-3","5","Spreadsheet1",NA,NA,"END TASK",NA,NA,NA,NA,"2561",NA,NA,NA,NA,"0","1","0",NA,NA,NA,NA,NA,NA,NA,NA,NA,NA,NA,NA,NA,NA,NA,NA,NA,NA,NA,NA,NA,NA,"ucjf5it7"
"136","1","1654600404735","07/06/2022 11:13:24","1654600404644","1","07/06/2022 12:13:24","86605","12","task-ow85",NA,"22331854","x15hufum","6582674",NA,"complete",NA,NA,"computer","Desktop or Laptop","Mac OS 10.15.7","Safari 15.4","1680x1050","1680x998",NA,"Closeness-3","5","Spreadsheet1",NA,NA,"BEGIN TASK",NA,NA,NA,NA,NA,NA,NA,NA,NA,"0","1","0",NA,NA,NA,NA,NA,NA,NA,NA,NA,NA,NA,NA,NA,NA,NA,NA,NA,NA,NA,NA,NA,NA,"x15hufum"
"137","2","1654600410178","07/06/2022 11:13:30","1654600410111","1","07/06/2022 12:13:30","86605","12","task-ow85",NA,"22331854","x15hufum","6582674",NA,"complete",NA,NA,"computer","Desktop or Laptop","Mac OS 10.15.7","Safari 15.4","1680x1050","1680x998",NA,"Closeness-3","5","Spreadsheet1","Spreadsheet1","1","1","1","Screen 1","buttonC","response_button_image","5398",NA,NA,"3.png","1","0","1","0",NA,NA,NA,NA,NA,"Instructions",NA,"1.png","2.png","3.png","4.png","5.png","6.png","7.png",NA,NA,NA,NA,NA,NA,NA,NA,"x15hufum"
"138","3","1654600410228","07/06/2022 11:13:30","1654600410114","1","07/06/2022 12:13:30","86605","12","task-ow85",NA,"22331854","x15hufum","6582674",NA,"complete",NA,NA,"computer","Desktop or Laptop","Mac OS 10.15.7","Safari 15.4","1680x1050","1680x998",NA,"Closeness-3","5","Spreadsheet1",NA,NA,"END TASK",NA,NA,NA,NA,"5470",NA,NA,NA,NA,"0","1","0",NA,NA,NA,NA,NA,NA,NA,NA,NA,NA,NA,NA,NA,NA,NA,NA,NA,NA,NA,NA,NA,NA,"x15hufum"
"139","1","1654605292224","07/06/2022 12:34:52","1654605292129","1","07/06/2022 13:34:52","86605","12","task-ow85",NA,"22334962","wopxcyrw","6583401",NA,"complete",NA,NA,"computer","Desktop or Laptop","Mac OS 10.15.7","Safari 15.4","1680x1050","1680x998",NA,"Closeness-3","5","Spreadsheet1",NA,NA,"BEGIN TASK",NA,NA,NA,NA,NA,NA,NA,NA,NA,"0","1","0",NA,NA,NA,NA,NA,NA,NA,NA,NA,NA,NA,NA,NA,NA,NA,NA,NA,NA,NA,NA,NA,NA,"wopxcyrw"
"140","2","1654605294865","07/06/2022 12:34:54","1654605294799","1","07/06/2022 13:34:54","86605","12","task-ow85",NA,"22334962","wopxcyrw","6583401",NA,"complete",NA,NA,"computer","Desktop or Laptop","Mac OS 10.15.7","Safari 15.4","1680x1050","1680x998",NA,"Closeness-3","5","Spreadsheet1","Spreadsheet1","1","1","1","Screen 1","buttonB","response_button_image","2595",NA,NA,"2.png","1","0","1","0",NA,NA,NA,NA,NA,"Instructions",NA,"1.png","2.png","3.png","4.png","5.png","6.png","7.png",NA,NA,NA,NA,NA,NA,NA,NA,"wopxcyrw"
"141","3","1654605294905","07/06/2022 12:34:54","1654605294801","1","07/06/2022 13:34:54","86605","12","task-ow85",NA,"22334962","wopxcyrw","6583401",NA,"complete",NA,NA,"computer","Desktop or Laptop","Mac OS 10.15.7","Safari 15.4","1680x1050","1680x998",NA,"Closeness-3","5","Spreadsheet1",NA,NA,"END TASK",NA,NA,NA,NA,"2672",NA,NA,NA,NA,"0","1","0",NA,NA,NA,NA,NA,NA,NA,NA,NA,NA,NA,NA,NA,NA,NA,NA,NA,NA,NA,NA,NA,NA,"wopxcyrw"
"142","1","1654610769988","07/06/2022 14:06:09","1654610769864","1","07/06/2022 15:06:09","86605","12","task-ow85",NA,"22337148","wyly5896","6584100",NA,"complete",NA,NA,"computer","Desktop or Laptop","Mac OS 10.15.7","Safari 15.4","1680x1050","1680x998",NA,"Closeness-3","5","Spreadsheet1",NA,NA,"BEGIN TASK",NA,NA,NA,NA,NA,NA,NA,NA,NA,"0","1","0",NA,NA,NA,NA,NA,NA,NA,NA,NA,NA,NA,NA,NA,NA,NA,NA,NA,NA,NA,NA,NA,NA,"wyly5896"
"143","2","1654610771203","07/06/2022 14:06:11","1654610771128","1","07/06/2022 15:06:11","86605","12","task-ow85",NA,"22337148","wyly5896","6584100",NA,"complete",NA,NA,"computer","Desktop or Laptop","Mac OS 10.15.7","Safari 15.4","1680x1050","1680x998",NA,"Closeness-3","5","Spreadsheet1","Spreadsheet1","1","1","1","Screen 1","buttonB","response_button_image","1228",NA,NA,"2.png","1","0","1","0",NA,NA,NA,NA,NA,"Instructions",NA,"1.png","2.png","3.png","4.png","5.png","6.png","7.png",NA,NA,NA,NA,NA,NA,NA,NA,"wyly5896"
"144","3","1654610771260","07/06/2022 14:06:11","1654610771131","1","07/06/2022 15:06:11","86605","12","task-ow85",NA,"22337148","wyly5896","6584100",NA,"complete",NA,NA,"computer","Desktop or Laptop","Mac OS 10.15.7","Safari 15.4","1680x1050","1680x998",NA,"Closeness-3","5","Spreadsheet1",NA,NA,"END TASK",NA,NA,NA,NA,"1267",NA,NA,NA,NA,"0","1","0",NA,NA,NA,NA,NA,NA,NA,NA,NA,NA,NA,NA,NA,NA,NA,NA,NA,NA,NA,NA,NA,NA,"wyly5896"
"145","1","1654621380906","07/06/2022 17:03:00","1654621380811","1","07/06/2022 18:03:00","86605","12","task-ow85",NA,"22343945","ucjf5it7","6586190",NA,"complete",NA,NA,"computer","Desktop or Laptop","Mac OS 10.15.7","Safari 15.4","1680x1050","1680x998",NA,"Closeness-3","5","Spreadsheet1",NA,NA,"BEGIN TASK",NA,NA,NA,NA,NA,NA,NA,NA,NA,"0","1","0",NA,NA,NA,NA,NA,NA,NA,NA,NA,NA,NA,NA,NA,NA,NA,NA,NA,NA,NA,NA,NA,NA,"ucjf5it7"
"146","2","1654621383434","07/06/2022 17:03:03","1654621383370","1","07/06/2022 18:03:03","86605","12","task-ow85",NA,"22343945","ucjf5it7","6586190",NA,"complete",NA,NA,"computer","Desktop or Laptop","Mac OS 10.15.7","Safari 15.4","1680x1050","1680x998",NA,"Closeness-3","5","Spreadsheet1","Spreadsheet1","1","1","1","Screen 1","buttonA","response_button_image","2513",NA,NA,"1.png","1","0","1","0",NA,NA,NA,NA,NA,"Instructions",NA,"1.png","2.png","3.png","4.png","5.png","6.png","7.png",NA,NA,NA,NA,NA,NA,NA,NA,"ucjf5it7"
"147","3","1654621383484","07/06/2022 17:03:03","1654621383372","1","07/06/2022 18:03:03","86605","12","task-ow85",NA,"22343945","ucjf5it7","6586190",NA,"complete",NA,NA,"computer","Desktop or Laptop","Mac OS 10.15.7","Safari 15.4","1680x1050","1680x998",NA,"Closeness-3","5","Spreadsheet1",NA,NA,"END TASK",NA,NA,NA,NA,"2561",NA,NA,NA,NA,"0","1","0",NA,NA,NA,NA,NA,NA,NA,NA,NA,NA,NA,NA,NA,NA,NA,NA,NA,NA,NA,NA,NA,NA,"ucjf5it7"
"148","1","1654680813887","08/06/2022 09:33:33","1654680813748","1","08/06/2022 10:33:33","86605","12","task-ow85",NA,"22353730","u4ckj0xb","6588751",NA,"complete",NA,NA,"computer","Desktop or Laptop","Mac OS 10.15.7","Safari 15.4","1680x1050","1680x998",NA,"Closeness-3","5","Spreadsheet1",NA,NA,"BEGIN TASK",NA,NA,NA,NA,NA,NA,NA,NA,NA,"0","1","0",NA,NA,NA,NA,NA,NA,NA,NA,NA,NA,NA,NA,NA,NA,NA,NA,NA,NA,NA,NA,NA,NA,"u4ckj0xb"
"149","2","1654680816405","08/06/2022 09:33:36","1654680816330","1","08/06/2022 10:33:36","86605","12","task-ow85",NA,"22353730","u4ckj0xb","6588751",NA,"complete",NA,NA,"computer","Desktop or Laptop","Mac OS 10.15.7","Safari 15.4","1680x1050","1680x998",NA,"Closeness-3","5","Spreadsheet1","Spreadsheet1","1","1","1","Screen 1","buttonD","response_button_image","2502",NA,NA,"4.png","1","0","1","0",NA,NA,NA,NA,NA,"Instructions",NA,"1.png","2.png","3.png","4.png","5.png","6.png","7.png",NA,NA,NA,NA,NA,NA,NA,NA,"u4ckj0xb"
"150","3","1654680816479","08/06/2022 09:33:36","1654680816332","1","08/06/2022 10:33:36","86605","12","task-ow85",NA,"22353730","u4ckj0xb","6588751",NA,"complete",NA,NA,"computer","Desktop or Laptop","Mac OS 10.15.7","Safari 15.4","1680x1050","1680x998",NA,"Closeness-3","5","Spreadsheet1",NA,NA,"END TASK",NA,NA,NA,NA,"2584",NA,NA,NA,NA,"0","1","0",NA,NA,NA,NA,NA,NA,NA,NA,NA,NA,NA,NA,NA,NA,NA,NA,NA,NA,NA,NA,NA,NA,"u4ckj0xb"
"151","1","1654686425782","08/06/2022 11:07:05","1654686425698","1","08/06/2022 12:07:05","86605","12","task-ow85",NA,"22355695","rcburgqm","6589320",NA,"complete",NA,NA,"computer","Desktop or Laptop","Mac OS 10.15.7","Safari 15.4","1680x1050","1680x998",NA,"Closeness-3","5","Spreadsheet1",NA,NA,"BEGIN TASK",NA,NA,NA,NA,NA,NA,NA,NA,NA,"0","1","0",NA,NA,NA,NA,NA,NA,NA,NA,NA,NA,NA,NA,NA,NA,NA,NA,NA,NA,NA,NA,NA,NA,"rcburgqm"
"152","2","1654686428339","08/06/2022 11:07:08","1654686428277","1","08/06/2022 12:07:08","86605","12","task-ow85",NA,"22355695","rcburgqm","6589320",NA,"complete",NA,NA,"computer","Desktop or Laptop","Mac OS 10.15.7","Safari 15.4","1680x1050","1680x998",NA,"Closeness-3","5","Spreadsheet1","Spreadsheet1","1","1","1","Screen 1","buttonC","response_button_image","2505",NA,NA,"3.png","1","0","1","0",NA,NA,NA,NA,NA,"Instructions",NA,"1.png","2.png","3.png","4.png","5.png","6.png","7.png",NA,NA,NA,NA,NA,NA,NA,NA,"rcburgqm"
"153","3","1654686428378","08/06/2022 11:07:08","1654686428280","1","08/06/2022 12:07:08","86605","12","task-ow85",NA,"22355695","rcburgqm","6589320",NA,"complete",NA,NA,"computer","Desktop or Laptop","Mac OS 10.15.7","Safari 15.4","1680x1050","1680x998",NA,"Closeness-3","5","Spreadsheet1",NA,NA,"END TASK",NA,NA,NA,NA,"2582",NA,NA,NA,NA,"0","1","0",NA,NA,NA,NA,NA,NA,NA,NA,NA,NA,NA,NA,NA,NA,NA,NA,NA,NA,NA,NA,NA,NA,"rcburgqm"
"154","1","1654692116968","08/06/2022 12:41:56","1654692116871","1","08/06/2022 13:41:56","86605","12","task-ow85",NA,"22358230","p1el4un1","6590094",NA,"complete",NA,NA,"computer","Desktop or Laptop","Mac OS 10.15.7","Safari 15.4","1680x1050","1680x998",NA,"Closeness-3","5","Spreadsheet1",NA,NA,"BEGIN TASK",NA,NA,NA,NA,NA,NA,NA,NA,NA,"0","1","0",NA,NA,NA,NA,NA,NA,NA,NA,NA,NA,NA,NA,NA,NA,NA,NA,NA,NA,NA,NA,NA,NA,"p1el4un1"
"155","2","1654692120301","08/06/2022 12:42:00","1654692120225","1","08/06/2022 13:42:00","86605","12","task-ow85",NA,"22358230","p1el4un1","6590094",NA,"complete",NA,NA,"computer","Desktop or Laptop","Mac OS 10.15.7","Safari 15.4","1680x1050","1680x998",NA,"Closeness-3","5","Spreadsheet1","Spreadsheet1","1","1","1","Screen 1","buttonA","response_button_image","3304",NA,NA,"1.png","1","0","1","0",NA,NA,NA,NA,NA,"Instructions",NA,"1.png","2.png","3.png","4.png","5.png","6.png","7.png",NA,NA,NA,NA,NA,NA,NA,NA,"p1el4un1"
"156","3","1654692120340","08/06/2022 12:42:00","1654692120228","1","08/06/2022 13:42:00","86605","12","task-ow85",NA,"22358230","p1el4un1","6590094",NA,"complete",NA,NA,"computer","Desktop or Laptop","Mac OS 10.15.7","Safari 15.4","1680x1050","1680x998",NA,"Closeness-3","5","Spreadsheet1",NA,NA,"END TASK",NA,NA,NA,NA,"3357",NA,NA,NA,NA,"0","1","0",NA,NA,NA,NA,NA,NA,NA,NA,NA,NA,NA,NA,NA,NA,NA,NA,NA,NA,NA,NA,NA,NA,"p1el4un1"
"157","1","1654696982018","08/06/2022 14:03:02","1654696981924","1","08/06/2022 15:03:01","86605","12","task-ow85",NA,"22360014","7ca8udou","6590644",NA,"complete",NA,NA,"computer","Desktop or Laptop","Mac OS 10.15.7","Safari 15.4","1680x1050","1680x998",NA,"Closeness-3","5","Spreadsheet1",NA,NA,"BEGIN TASK",NA,NA,NA,NA,NA,NA,NA,NA,NA,"0","1","0",NA,NA,NA,NA,NA,NA,NA,NA,NA,NA,NA,NA,NA,NA,NA,NA,NA,NA,NA,NA,NA,NA,"7ca8udou"
"158","2","1654696984727","08/06/2022 14:03:04","1654696984648","1","08/06/2022 15:03:04","86605","12","task-ow85",NA,"22360014","7ca8udou","6590644",NA,"complete",NA,NA,"computer","Desktop or Laptop","Mac OS 10.15.7","Safari 15.4","1680x1050","1680x998",NA,"Closeness-3","5","Spreadsheet1","Spreadsheet1","1","1","1","Screen 1","buttonD","response_button_image","2677",NA,NA,"4.png","1","0","1","0",NA,NA,NA,NA,NA,"Instructions",NA,"1.png","2.png","3.png","4.png","5.png","6.png","7.png",NA,NA,NA,NA,NA,NA,NA,NA,"7ca8udou"
"159","3","1654696984769","08/06/2022 14:03:04","1654696984651","1","08/06/2022 15:03:04","86605","12","task-ow85",NA,"22360014","7ca8udou","6590644",NA,"complete",NA,NA,"computer","Desktop or Laptop","Mac OS 10.15.7","Safari 15.4","1680x1050","1680x998",NA,"Closeness-3","5","Spreadsheet1",NA,NA,"END TASK",NA,NA,NA,NA,"2727",NA,NA,NA,NA,"0","1","0",NA,NA,NA,NA,NA,NA,NA,NA,NA,NA,NA,NA,NA,NA,NA,NA,NA,NA,NA,NA,NA,NA,"7ca8udou"
"160","1","1654702790413","08/06/2022 15:39:50","1654702790302","1","08/06/2022 16:39:50","86605","12","task-ow85",NA,"22362119","fbdvz2jm","6591244",NA,"complete",NA,NA,"computer","Desktop or Laptop","Mac OS 10.15.7","Safari 15.4","1680x1050","1680x998",NA,"Closeness-3","5","Spreadsheet1",NA,NA,"BEGIN TASK",NA,NA,NA,NA,NA,NA,NA,NA,NA,"0","1","0",NA,NA,NA,NA,NA,NA,NA,NA,NA,NA,NA,NA,NA,NA,NA,NA,NA,NA,NA,NA,NA,NA,"fbdvz2jm"
"161","2","1654702793868","08/06/2022 15:39:53","1654702793788","1","08/06/2022 16:39:53","86605","12","task-ow85",NA,"22362119","fbdvz2jm","6591244",NA,"complete",NA,NA,"computer","Desktop or Laptop","Mac OS 10.15.7","Safari 15.4","1680x1050","1680x998",NA,"Closeness-3","5","Spreadsheet1","Spreadsheet1","1","1","1","Screen 1","buttonA","response_button_image","3438",NA,NA,"1.png","1","0","1","0",NA,NA,NA,NA,NA,"Instructions",NA,"1.png","2.png","3.png","4.png","5.png","6.png","7.png",NA,NA,NA,NA,NA,NA,NA,NA,"fbdvz2jm"
"162","3","1654702793947","08/06/2022 15:39:53","1654702793791","1","08/06/2022 16:39:53","86605","12","task-ow85",NA,"22362119","fbdvz2jm","6591244",NA,"complete",NA,NA,"computer","Desktop or Laptop","Mac OS 10.15.7","Safari 15.4","1680x1050","1680x998",NA,"Closeness-3","5","Spreadsheet1",NA,NA,"END TASK",NA,NA,NA,NA,"3489",NA,NA,NA,NA,"0","1","0",NA,NA,NA,NA,NA,NA,NA,NA,NA,NA,NA,NA,NA,NA,NA,NA,NA,NA,NA,NA,NA,NA,"fbdvz2jm"
"163","1","1654708243091","08/06/2022 17:10:43","1654708242986","1","08/06/2022 18:10:42","86605","12","task-ow85",NA,"22364626","lcoa0ulz","6591969",NA,"complete",NA,NA,"computer","Desktop or Laptop","Mac OS 10.15.7","Safari 15.4","1680x1050","1680x998",NA,"Closeness-3","5","Spreadsheet1",NA,NA,"BEGIN TASK",NA,NA,NA,NA,NA,NA,NA,NA,NA,"0","1","0",NA,NA,NA,NA,NA,NA,NA,NA,NA,NA,NA,NA,NA,NA,NA,NA,NA,NA,NA,NA,NA,NA,"lcoa0ulz"
"164","2","1654708245410","08/06/2022 17:10:45","1654708245356","1","08/06/2022 18:10:45","86605","12","task-ow85",NA,"22364626","lcoa0ulz","6591969",NA,"complete",NA,NA,"computer","Desktop or Laptop","Mac OS 10.15.7","Safari 15.4","1680x1050","1680x998",NA,"Closeness-3","5","Spreadsheet1","Spreadsheet1","1","1","1","Screen 1","buttonA","response_button_image","2332",NA,NA,"1.png","1","0","1","0",NA,NA,NA,NA,NA,"Instructions",NA,"1.png","2.png","3.png","4.png","5.png","6.png","7.png",NA,NA,NA,NA,NA,NA,NA,NA,"lcoa0ulz"
"165","3","1654708245466","08/06/2022 17:10:45","1654708245359","1","08/06/2022 18:10:45","86605","12","task-ow85",NA,"22364626","lcoa0ulz","6591969",NA,"complete",NA,NA,"computer","Desktop or Laptop","Mac OS 10.15.7","Safari 15.4","1680x1050","1680x998",NA,"Closeness-3","5","Spreadsheet1",NA,NA,"END TASK",NA,NA,NA,NA,"2373",NA,NA,NA,NA,"0","1","0",NA,NA,NA,NA,NA,NA,NA,NA,NA,NA,NA,NA,NA,NA,NA,NA,NA,NA,NA,NA,NA,NA,"lcoa0ulz"
"166","1","1654620571670","07/06/2022 16:49:31","1654620571566","1","07/06/2022 17:49:31","86605","12","task-pfyd",NA,"22343489","ucjf5it7","6586190",NA,"complete",NA,NA,"computer","Desktop or Laptop","Mac OS 10.15.7","Safari 15.4","1680x1050","1680x998",NA,"Before the 2nd visitor","8","Spreadsheet1",NA,NA,"BEGIN TASK",NA,NA,NA,NA,NA,NA,NA,NA,NA,"0","1","0",NA,NA,NA,NA,NA,NA,NA,NA,NA,NA,NA,NA,NA,NA,NA,NA,NA,NA,NA,NA,NA,NA,"ucjf5it7"
"167","2","1654620912563","07/06/2022 16:55:12","1654620912436","1","07/06/2022 17:55:12","86605","12","task-pfyd",NA,"22343489","ucjf5it7","6586190",NA,"complete",NA,NA,"computer","Desktop or Laptop","Mac OS 10.15.7","Safari 15.4","1680x1050","1680x998",NA,"Before the 2nd visitor","8","Spreadsheet1","Spreadsheet1","1","1","1","Screen 2","advancementZone","continue_button","171878",NA,NA,NA,NA,"0","1","0",NA,NA,NA,NA,NA,"Intro 2",NA,NA,NA,NA,NA,NA,NA,NA,NA,NA,NA,NA,NA,NA,NA,NA,"ucjf5it7"
"168","3","1654620912627","07/06/2022 16:55:12","1654620912439","1","07/06/2022 17:55:12","86605","12","task-pfyd",NA,"22343489","ucjf5it7","6586190",NA,"complete",NA,NA,"computer","Desktop or Laptop","Mac OS 10.15.7","Safari 15.4","1680x1050","1680x998",NA,"Before the 2nd visitor","8","Spreadsheet1",NA,NA,"END TASK",NA,NA,NA,NA,"340873",NA,NA,NA,NA,"0","1","0",NA,NA,NA,NA,NA,NA,NA,NA,NA,NA,NA,NA,NA,NA,NA,NA,NA,NA,NA,NA,NA,NA,"ucjf5it7"
"169","1","1654599470365","07/06/2022 10:57:50","1654599470279","1","07/06/2022 11:57:50","86605","12","task-pfyd",NA,"22331128","x15hufum","6582674",NA,"complete",NA,NA,"computer","Desktop or Laptop","Mac OS 10.15.7","Safari 15.4","1680x1050","1680x998",NA,"Before the 2nd visitor","8","Spreadsheet1",NA,NA,"BEGIN TASK",NA,NA,NA,NA,NA,NA,NA,NA,NA,"0","1","0",NA,NA,NA,NA,NA,NA,NA,NA,NA,NA,NA,NA,NA,NA,NA,NA,NA,NA,NA,NA,NA,NA,"x15hufum"
"170","1","1654604374033","07/06/2022 12:19:34","1654604373944","1","07/06/2022 13:19:33","86605","12","task-pfyd",NA,"22334039","wopxcyrw","6583401",NA,"complete",NA,NA,"computer","Desktop or Laptop","Mac OS 10.15.7","Safari 15.4","1680x1050","1680x998",NA,"Before the 2nd visitor","8","Spreadsheet1",NA,NA,"BEGIN TASK",NA,NA,NA,NA,NA,NA,NA,NA,NA,"0","1","0",NA,NA,NA,NA,NA,NA,NA,NA,NA,NA,NA,NA,NA,NA,NA,NA,NA,NA,NA,NA,NA,NA,"wopxcyrw"
"171","2","1654604726638","07/06/2022 12:25:26","1654604726413","1","07/06/2022 13:25:26","86605","12","task-pfyd",NA,"22334039","wopxcyrw","6583401",NA,"complete",NA,NA,"computer","Desktop or Laptop","Mac OS 10.15.7","Safari 15.4","1680x1050","1680x998",NA,"Before the 2nd visitor","8","Spreadsheet1","Spreadsheet1","1","1","1","Screen 2","advancementZone","continue_button","161881",NA,NA,NA,NA,"0","1","0",NA,NA,NA,NA,NA,"Intro 2",NA,NA,NA,NA,NA,NA,NA,NA,NA,NA,NA,NA,NA,NA,NA,NA,"wopxcyrw"
"172","3","1654604726812","07/06/2022 12:25:26","1654604726416","1","07/06/2022 13:25:26","86605","12","task-pfyd",NA,"22334039","wopxcyrw","6583401",NA,"complete",NA,NA,"computer","Desktop or Laptop","Mac OS 10.15.7","Safari 15.4","1680x1050","1680x998",NA,"Before the 2nd visitor","8","Spreadsheet1",NA,NA,"END TASK",NA,NA,NA,NA,"352472",NA,NA,NA,NA,"0","1","0",NA,NA,NA,NA,NA,NA,NA,NA,NA,NA,NA,NA,NA,NA,NA,NA,NA,NA,NA,NA,NA,NA,"wopxcyrw"
"173","1","1654609930626","07/06/2022 13:52:10","1654609930521","1","07/06/2022 14:52:10","86605","12","task-pfyd",NA,"22336810","wyly5896","6584100",NA,"complete",NA,NA,"computer","Desktop or Laptop","Mac OS 10.15.7","Safari 15.4","1680x1050","1680x998",NA,"Before the 2nd visitor","8","Spreadsheet1",NA,NA,"BEGIN TASK",NA,NA,NA,NA,NA,NA,NA,NA,NA,"0","1","0",NA,NA,NA,NA,NA,NA,NA,NA,NA,NA,NA,NA,NA,NA,NA,NA,NA,NA,NA,NA,NA,NA,"wyly5896"
"174","2","1654610265289","07/06/2022 13:57:45","1654610265140","1","07/06/2022 14:57:45","86605","12","task-pfyd",NA,"22336810","wyly5896","6584100",NA,"complete",NA,NA,"computer","Desktop or Laptop","Mac OS 10.15.7","Safari 15.4","1680x1050","1680x998",NA,"Before the 2nd visitor","8","Spreadsheet1","Spreadsheet1","1","1","1","Screen 2","advancementZone","continue_button","334591",NA,NA,NA,NA,"0","1","0",NA,NA,NA,NA,NA,"Intro 2",NA,NA,NA,NA,NA,NA,NA,NA,NA,NA,NA,NA,NA,NA,NA,NA,"wyly5896"
"175","3","1654610265360","07/06/2022 13:57:45","1654610265145","1","07/06/2022 14:57:45","86605","12","task-pfyd",NA,"22336810","wyly5896","6584100",NA,"complete",NA,NA,"computer","Desktop or Laptop","Mac OS 10.15.7","Safari 15.4","1680x1050","1680x998",NA,"Before the 2nd visitor","8","Spreadsheet1",NA,NA,"END TASK",NA,NA,NA,NA,"334622",NA,NA,NA,NA,"0","1","0",NA,NA,NA,NA,NA,NA,NA,NA,NA,NA,NA,NA,NA,NA,NA,NA,NA,NA,NA,NA,NA,NA,"wyly5896"
"176","1","1654620571670","07/06/2022 16:49:31","1654620571566","1","07/06/2022 17:49:31","86605","12","task-pfyd",NA,"22343489","ucjf5it7","6586190",NA,"complete",NA,NA,"computer","Desktop or Laptop","Mac OS 10.15.7","Safari 15.4","1680x1050","1680x998",NA,"Before the 2nd visitor","8","Spreadsheet1",NA,NA,"BEGIN TASK",NA,NA,NA,NA,NA,NA,NA,NA,NA,"0","1","0",NA,NA,NA,NA,NA,NA,NA,NA,NA,NA,NA,NA,NA,NA,NA,NA,NA,NA,NA,NA,NA,NA,"ucjf5it7"
"177","2","1654620912563","07/06/2022 16:55:12","1654620912436","1","07/06/2022 17:55:12","86605","12","task-pfyd",NA,"22343489","ucjf5it7","6586190",NA,"complete",NA,NA,"computer","Desktop or Laptop","Mac OS 10.15.7","Safari 15.4","1680x1050","1680x998",NA,"Before the 2nd visitor","8","Spreadsheet1","Spreadsheet1","1","1","1","Screen 2","advancementZone","continue_button","171878",NA,NA,NA,NA,"0","1","0",NA,NA,NA,NA,NA,"Intro 2",NA,NA,NA,NA,NA,NA,NA,NA,NA,NA,NA,NA,NA,NA,NA,NA,"ucjf5it7"
"178","3","1654620912627","07/06/2022 16:55:12","1654620912439","1","07/06/2022 17:55:12","86605","12","task-pfyd",NA,"22343489","ucjf5it7","6586190",NA,"complete",NA,NA,"computer","Desktop or Laptop","Mac OS 10.15.7","Safari 15.4","1680x1050","1680x998",NA,"Before the 2nd visitor","8","Spreadsheet1",NA,NA,"END TASK",NA,NA,NA,NA,"340873",NA,NA,NA,NA,"0","1","0",NA,NA,NA,NA,NA,NA,NA,NA,NA,NA,NA,NA,NA,NA,NA,NA,NA,NA,NA,NA,NA,NA,"ucjf5it7"
"179","1","1654679994537","08/06/2022 09:19:54","1654679994462","1","08/06/2022 10:19:54","86605","12","task-pfyd",NA,"22353479","u4ckj0xb","6588751",NA,"complete",NA,NA,"computer","Desktop or Laptop","Mac OS 10.15.7","Safari 15.4","1680x1050","1680x998",NA,"Before the 2nd visitor","8","Spreadsheet1",NA,NA,"BEGIN TASK",NA,NA,NA,NA,NA,NA,NA,NA,NA,"0","1","0",NA,NA,NA,NA,NA,NA,NA,NA,NA,NA,NA,NA,NA,NA,NA,NA,NA,NA,NA,NA,NA,NA,"u4ckj0xb"
"180","2","1654680349710","08/06/2022 09:25:49","1654680349619","1","08/06/2022 10:25:49","86605","12","task-pfyd",NA,"22353479","u4ckj0xb","6588751",NA,"complete",NA,NA,"computer","Desktop or Laptop","Mac OS 10.15.7","Safari 15.4","1680x1050","1680x998",NA,"Before the 2nd visitor","8","Spreadsheet1","Spreadsheet1","1","1","1","Screen 2","advancementZone","continue_button","160055",NA,NA,NA,NA,"0","1","0",NA,NA,NA,NA,NA,"Intro 2",NA,NA,NA,NA,NA,NA,NA,NA,NA,NA,NA,NA,NA,NA,NA,NA,"u4ckj0xb"
"181","3","1654680349790","08/06/2022 09:25:49","1654680349622","1","08/06/2022 10:25:49","86605","12","task-pfyd",NA,"22353479","u4ckj0xb","6588751",NA,"complete",NA,NA,"computer","Desktop or Laptop","Mac OS 10.15.7","Safari 15.4","1680x1050","1680x998",NA,"Before the 2nd visitor","8","Spreadsheet1",NA,NA,"END TASK",NA,NA,NA,NA,"355160",NA,NA,NA,NA,"0","1","0",NA,NA,NA,NA,NA,NA,NA,NA,NA,NA,NA,NA,NA,NA,NA,NA,NA,NA,NA,NA,NA,NA,"u4ckj0xb"
"182","1","1654685593921","08/06/2022 10:53:13","1654685593843","1","08/06/2022 11:53:13","86605","12","task-pfyd",NA,"22355360","rcburgqm","6589320",NA,"complete",NA,NA,"computer","Desktop or Laptop","Mac OS 10.15.7","Safari 15.4","1680x1050","1680x998",NA,"Before the 2nd visitor","8","Spreadsheet1",NA,NA,"BEGIN TASK",NA,NA,NA,NA,NA,NA,NA,NA,NA,"0","1","0",NA,NA,NA,NA,NA,NA,NA,NA,NA,NA,NA,NA,NA,NA,NA,NA,NA,NA,NA,NA,NA,NA,"rcburgqm"
"183","2","1654685940087","08/06/2022 10:59:00","1654685939971","1","08/06/2022 11:58:59","86605","12","task-pfyd",NA,"22355360","rcburgqm","6589320",NA,"complete",NA,NA,"computer","Desktop or Laptop","Mac OS 10.15.7","Safari 15.4","1680x1050","1680x998",NA,"Before the 2nd visitor","8","Spreadsheet1","Spreadsheet1","1","1","1","Screen 2","advancementZone","continue_button","346099",NA,NA,NA,NA,"0","1","0",NA,NA,NA,NA,NA,"Intro 2",NA,NA,NA,NA,NA,NA,NA,NA,NA,NA,NA,NA,NA,NA,NA,NA,"rcburgqm"
"184","3","1654685940163","08/06/2022 10:59:00","1654685939978","1","08/06/2022 11:58:59","86605","12","task-pfyd",NA,"22355360","rcburgqm","6589320",NA,"complete",NA,NA,"computer","Desktop or Laptop","Mac OS 10.15.7","Safari 15.4","1680x1050","1680x998",NA,"Before the 2nd visitor","8","Spreadsheet1",NA,NA,"END TASK",NA,NA,NA,NA,"346134",NA,NA,NA,NA,"0","1","0",NA,NA,NA,NA,NA,NA,NA,NA,NA,NA,NA,NA,NA,NA,NA,NA,NA,NA,NA,NA,NA,NA,"rcburgqm"
"185","1","1654691199619","08/06/2022 12:26:39","1654691199522","1","08/06/2022 13:26:39","86605","12","task-pfyd",NA,"22357967","p1el4un1","6590094",NA,"complete",NA,NA,"computer","Desktop or Laptop","Mac OS 10.15.7","Safari 15.4","1680x1050","1680x998",NA,"Before the 2nd visitor","8","Spreadsheet1",NA,NA,"BEGIN TASK",NA,NA,NA,NA,NA,NA,NA,NA,NA,"0","1","0",NA,NA,NA,NA,NA,NA,NA,NA,NA,NA,NA,NA,NA,NA,NA,NA,NA,NA,NA,NA,NA,NA,"p1el4un1"
"186","2","1654691538615","08/06/2022 12:32:18","1654691538520","1","08/06/2022 13:32:18","86605","12","task-pfyd",NA,"22357967","p1el4un1","6590094",NA,"complete",NA,NA,"computer","Desktop or Laptop","Mac OS 10.15.7","Safari 15.4","1680x1050","1680x998",NA,"Before the 2nd visitor","8","Spreadsheet1","Spreadsheet1","1","1","1","Screen 2","advancementZone","continue_button","338977",NA,NA,NA,NA,"0","1","0",NA,NA,NA,NA,NA,"Intro 2",NA,NA,NA,NA,NA,NA,NA,NA,NA,NA,NA,NA,NA,NA,NA,NA,"p1el4un1"
"187","3","1654691538693","08/06/2022 12:32:18","1654691538523","1","08/06/2022 13:32:18","86605","12","task-pfyd",NA,"22357967","p1el4un1","6590094",NA,"complete",NA,NA,"computer","Desktop or Laptop","Mac OS 10.15.7","Safari 15.4","1680x1050","1680x998",NA,"Before the 2nd visitor","8","Spreadsheet1",NA,NA,"END TASK",NA,NA,NA,NA,"339001",NA,NA,NA,NA,"0","1","0",NA,NA,NA,NA,NA,NA,NA,NA,NA,NA,NA,NA,NA,NA,NA,NA,NA,NA,NA,NA,NA,NA,"p1el4un1"
"188","1","1654696244148","08/06/2022 13:50:44","1654696244029","1","08/06/2022 14:50:44","86605","12","task-pfyd",NA,"22359784","7ca8udou","6590644",NA,"complete",NA,NA,"computer","Desktop or Laptop","Mac OS 10.15.7","Safari 15.4","1680x1050","1680x998",NA,"Before the 2nd visitor","8","Spreadsheet1",NA,NA,"BEGIN TASK",NA,NA,NA,NA,NA,NA,NA,NA,NA,"0","1","0",NA,NA,NA,NA,NA,NA,NA,NA,NA,NA,NA,NA,NA,NA,NA,NA,NA,NA,NA,NA,NA,NA,"7ca8udou"
"189","2","1654696559435","08/06/2022 13:55:59","1654696559303","1","08/06/2022 14:55:59","86605","12","task-pfyd",NA,"22359784","7ca8udou","6590644",NA,"complete",NA,NA,"computer","Desktop or Laptop","Mac OS 10.15.7","Safari 15.4","1680x1050","1680x998",NA,"Before the 2nd visitor","8","Spreadsheet1","Spreadsheet1","1","1","1","Screen 2","advancementZone","continue_button","315232",NA,NA,NA,NA,"0","1","0",NA,NA,NA,NA,NA,"Intro 2",NA,NA,NA,NA,NA,NA,NA,NA,NA,NA,NA,NA,NA,NA,NA,NA,"7ca8udou"
"190","3","1654696559493","08/06/2022 13:55:59","1654696559312","1","08/06/2022 14:55:59","86605","12","task-pfyd",NA,"22359784","7ca8udou","6590644",NA,"complete",NA,NA,"computer","Desktop or Laptop","Mac OS 10.15.7","Safari 15.4","1680x1050","1680x998",NA,"Before the 2nd visitor","8","Spreadsheet1",NA,NA,"END TASK",NA,NA,NA,NA,"315283",NA,NA,NA,NA,"0","1","0",NA,NA,NA,NA,NA,NA,NA,NA,NA,NA,NA,NA,NA,NA,NA,NA,NA,NA,NA,NA,NA,NA,"7ca8udou"
"191","1","1654701860045","08/06/2022 15:24:20","1654701859944","1","08/06/2022 16:24:19","86605","12","task-pfyd",NA,"22361758","fbdvz2jm","6591244",NA,"complete",NA,NA,"computer","Desktop or Laptop","Mac OS 10.15.7","Safari 15.4","1680x1050","1680x998",NA,"Before the 2nd visitor","8","Spreadsheet1",NA,NA,"BEGIN TASK",NA,NA,NA,NA,NA,NA,NA,NA,NA,"0","1","0",NA,NA,NA,NA,NA,NA,NA,NA,NA,NA,NA,NA,NA,NA,NA,NA,NA,NA,NA,NA,NA,NA,"fbdvz2jm"
"192","2","1654702250979","08/06/2022 15:30:50","1654702250842","1","08/06/2022 16:30:50","86605","12","task-pfyd",NA,"22361758","fbdvz2jm","6591244",NA,"complete",NA,NA,"computer","Desktop or Laptop","Mac OS 10.15.7","Safari 15.4","1680x1050","1680x998",NA,"Before the 2nd visitor","8","Spreadsheet1","Spreadsheet1","1","1","1","Screen 2","advancementZone","continue_button","390863",NA,NA,NA,NA,"0","1","0",NA,NA,NA,NA,NA,"Intro 2",NA,NA,NA,NA,NA,NA,NA,NA,NA,NA,NA,NA,NA,NA,NA,NA,"fbdvz2jm"
"193","3","1654702251025","08/06/2022 15:30:51","1654702250846","1","08/06/2022 16:30:50","86605","12","task-pfyd",NA,"22361758","fbdvz2jm","6591244",NA,"complete",NA,NA,"computer","Desktop or Laptop","Mac OS 10.15.7","Safari 15.4","1680x1050","1680x998",NA,"Before the 2nd visitor","8","Spreadsheet1",NA,NA,"END TASK",NA,NA,NA,NA,"390902",NA,NA,NA,NA,"0","1","0",NA,NA,NA,NA,NA,NA,NA,NA,NA,NA,NA,NA,NA,NA,NA,NA,NA,NA,NA,NA,NA,NA,"fbdvz2jm"
"194","1","1654707396457","08/06/2022 16:56:36","1654707396382","1","08/06/2022 17:56:36","86605","12","task-pfyd",NA,"22363980","lcoa0ulz","6591969",NA,"complete",NA,NA,"computer","Desktop or Laptop","Mac OS 10.15.7","Safari 15.4","1680x1050","1680x998",NA,"Before the 2nd visitor","8","Spreadsheet1",NA,NA,"BEGIN TASK",NA,NA,NA,NA,NA,NA,NA,NA,NA,"0","1","0",NA,NA,NA,NA,NA,NA,NA,NA,NA,NA,NA,NA,NA,NA,NA,NA,NA,NA,NA,NA,NA,NA,"lcoa0ulz"
"195","2","1654707735417","08/06/2022 17:02:15","1654707735304","1","08/06/2022 18:02:15","86605","12","task-pfyd",NA,"22363980","lcoa0ulz","6591969",NA,"complete",NA,NA,"computer","Desktop or Laptop","Mac OS 10.15.7","Safari 15.4","1680x1050","1680x998",NA,"Before the 2nd visitor","8","Spreadsheet1","Spreadsheet1","1","1","1","Screen 2","advancementZone","continue_button","338896",NA,NA,NA,NA,"0","1","0",NA,NA,NA,NA,NA,"Intro 2",NA,NA,NA,NA,NA,NA,NA,NA,NA,NA,NA,NA,NA,NA,NA,NA,"lcoa0ulz"
"196","3","1654707735461","08/06/2022 17:02:15","1654707735307","1","08/06/2022 18:02:15","86605","12","task-pfyd",NA,"22363980","lcoa0ulz","6591969",NA,"complete",NA,NA,"computer","Desktop or Laptop","Mac OS 10.15.7","Safari 15.4","1680x1050","1680x998",NA,"Before the 2nd visitor","8","Spreadsheet1",NA,NA,"END TASK",NA,NA,NA,NA,"338925",NA,NA,NA,NA,"0","1","0",NA,NA,NA,NA,NA,NA,NA,NA,NA,NA,NA,NA,NA,NA,NA,NA,NA,NA,NA,NA,NA,NA,"lcoa0ulz"
"197","1","1654619786936","07/06/2022 16:36:26","1654619786831","1","07/06/2022 17:36:26","86605","12","task-s61q",NA,"22343116","ucjf5it7","6586190",NA,"complete",NA,NA,"computer","Desktop or Laptop","Mac OS 10.15.7","Safari 15.4","1680x1050","1680x998",NA,"An art exhibition game","4","Spreadsheet1",NA,NA,"BEGIN TASK",NA,NA,NA,NA,NA,NA,NA,NA,NA,"0","1","0",NA,NA,NA,NA,NA,NA,NA,NA,NA,NA,NA,NA,NA,NA,NA,NA,NA,NA,NA,NA,NA,NA,"ucjf5it7"
"198","2","1654619797570","07/06/2022 16:36:37","1654619797495","1","07/06/2022 17:36:37","86605","12","task-s61q",NA,"22343116","ucjf5it7","6586190",NA,"complete",NA,NA,"computer","Desktop or Laptop","Mac OS 10.15.7","Safari 15.4","1680x1050","1680x998",NA,"An art exhibition game","4","Spreadsheet1","Spreadsheet1","1","1","1","Screen 2","advancementZone","continue_button","10634",NA,NA,NA,NA,"0","1","0",NA,NA,NA,NA,NA,"Instructions",NA,NA,NA,NA,NA,NA,NA,NA,NA,NA,NA,NA,NA,NA,NA,NA,"ucjf5it7"
"199","3","1654619805425","07/06/2022 16:36:45","1654619805371","1","07/06/2022 17:36:45","86605","12","task-s61q",NA,"22343116","ucjf5it7","6586190",NA,"complete",NA,NA,"computer","Desktop or Laptop","Mac OS 10.15.7","Safari 15.4","1680x1050","1680x998",NA,"An art exhibition game","4","Spreadsheet1","Spreadsheet1","1","1","2","Screen 3","advancementZone","continue_button","7868",NA,NA,NA,NA,"0","1","0",NA,NA,NA,NA,NA,"Instructions",NA,NA,NA,NA,NA,NA,NA,NA,NA,NA,NA,NA,NA,NA,NA,NA,"ucjf5it7"
"200","4","1654619833650","07/06/2022 16:37:13","1654619833576","1","07/06/2022 17:37:13","86605","12","task-s61q",NA,"22343116","ucjf5it7","6586190",NA,"complete",NA,NA,"computer","Desktop or Laptop","Mac OS 10.15.7","Safari 15.4","1680x1050","1680x998",NA,"An art exhibition game","4","Spreadsheet1","Spreadsheet1","1","1","3","Screen 4","advancementZone","response_button_text","28196",NA,NA,"Take a screenshot","1","0","1","0",NA,NA,NA,NA,NA,"Instructions",NA,NA,NA,NA,NA,NA,NA,NA,NA,NA,NA,NA,NA,NA,NA,NA,"ucjf5it7"
"201","5","1654619845509","07/06/2022 16:37:25","1654619845430","1","07/06/2022 17:37:25","86605","12","task-s61q",NA,"22343116","ucjf5it7","6586190",NA,"complete",NA,NA,"computer","Desktop or Laptop","Mac OS 10.15.7","Safari 15.4","1680x1050","1680x998",NA,"An art exhibition game","4","Spreadsheet1","Spreadsheet1","1","1","4","Screen 5","advancementZone","continue_button","11849",NA,NA,NA,NA,"0","1","0",NA,NA,NA,NA,NA,"Instructions",NA,NA,NA,NA,NA,NA,NA,NA,NA,NA,NA,NA,NA,NA,NA,NA,"ucjf5it7"
"202","6","1654619845539","07/06/2022 16:37:25","1654619845436","1","07/06/2022 17:37:25","86605","12","task-s61q",NA,"22343116","ucjf5it7","6586190",NA,"complete",NA,NA,"computer","Desktop or Laptop","Mac OS 10.15.7","Safari 15.4","1680x1050","1680x998",NA,"An art exhibition game","4","Spreadsheet1",NA,NA,"END TASK",NA,NA,NA,NA,"58605",NA,NA,NA,NA,"0","1","0",NA,NA,NA,NA,NA,NA,NA,NA,NA,NA,NA,NA,NA,NA,NA,NA,NA,NA,NA,NA,NA,NA,"ucjf5it7"
"203","1","1654598469340","07/06/2022 10:41:09","1654598469254","1","07/06/2022 11:41:09","86605","12","task-s61q",NA,"22329625","x15hufum","6582674",NA,"complete",NA,NA,"computer","Desktop or Laptop","Mac OS 10.15.7","Safari 15.4","1680x1050","1680x998",NA,"An art exhibition game","4","Spreadsheet1",NA,NA,"BEGIN TASK",NA,NA,NA,NA,NA,NA,NA,NA,NA,"0","1","0",NA,NA,NA,NA,NA,NA,NA,NA,NA,NA,NA,NA,NA,NA,NA,NA,NA,NA,NA,NA,NA,NA,"x15hufum"
"204","2","1654598475725","07/06/2022 10:41:15","1654598475684","1","07/06/2022 11:41:15","86605","12","task-s61q",NA,"22329625","x15hufum","6582674",NA,"complete",NA,NA,"computer","Desktop or Laptop","Mac OS 10.15.7","Safari 15.4","1680x1050","1680x998",NA,"An art exhibition game","4","Spreadsheet1","Spreadsheet1","1","1","1","Screen 2","advancementZone","continue_button","6367",NA,NA,NA,NA,"0","1","0",NA,NA,NA,NA,NA,"Instructions",NA,NA,NA,NA,NA,NA,NA,NA,NA,NA,NA,NA,NA,NA,NA,NA,"x15hufum"
"205","3","1654598479853","07/06/2022 10:41:19","1654598479806","1","07/06/2022 11:41:19","86605","12","task-s61q",NA,"22329625","x15hufum","6582674",NA,"complete",NA,NA,"computer","Desktop or Laptop","Mac OS 10.15.7","Safari 15.4","1680x1050","1680x998",NA,"An art exhibition game","4","Spreadsheet1","Spreadsheet1","1","1","2","Screen 3","advancementZone","continue_button","4114",NA,NA,NA,NA,"0","1","0",NA,NA,NA,NA,NA,"Instructions",NA,NA,NA,NA,NA,NA,NA,NA,NA,NA,NA,NA,NA,NA,NA,NA,"x15hufum"
"206","4","1654598504528","07/06/2022 10:41:44","1654598504477","1","07/06/2022 11:41:44","86605","12","task-s61q",NA,"22329625","x15hufum","6582674",NA,"complete",NA,NA,"computer","Desktop or Laptop","Mac OS 10.15.7","Safari 15.4","1680x1050","1680x998",NA,"An art exhibition game","4","Spreadsheet1","Spreadsheet1","1","1","3","Screen 4","advancementZone","response_button_text","24656",NA,NA,"Take a screenshot","1","0","1","0",NA,NA,NA,NA,NA,"Instructions",NA,NA,NA,NA,NA,NA,NA,NA,NA,NA,NA,NA,NA,NA,NA,NA,"x15hufum"
"207","5","1654598510191","07/06/2022 10:41:50","1654598510134","1","07/06/2022 11:41:50","86605","12","task-s61q",NA,"22329625","x15hufum","6582674",NA,"complete",NA,NA,"computer","Desktop or Laptop","Mac OS 10.15.7","Safari 15.4","1680x1050","1680x998",NA,"An art exhibition game","4","Spreadsheet1","Spreadsheet1","1","1","4","Screen 5","advancementZone","continue_button","5651.00000000001",NA,NA,NA,NA,"0","1","0",NA,NA,NA,NA,NA,"Instructions",NA,NA,NA,NA,NA,NA,NA,NA,NA,NA,NA,NA,NA,NA,NA,NA,"x15hufum"
"208","6","1654598510231","07/06/2022 10:41:50","1654598510137","1","07/06/2022 11:41:50","86605","12","task-s61q",NA,"22329625","x15hufum","6582674",NA,"complete",NA,NA,"computer","Desktop or Laptop","Mac OS 10.15.7","Safari 15.4","1680x1050","1680x998",NA,"An art exhibition game","4","Spreadsheet1",NA,NA,"END TASK",NA,NA,NA,NA,"40883",NA,NA,NA,NA,"0","1","0",NA,NA,NA,NA,NA,NA,NA,NA,NA,NA,NA,NA,NA,NA,NA,NA,NA,NA,NA,NA,NA,NA,"x15hufum"
"209","1","1654603504815","07/06/2022 12:05:04","1654603504733","1","07/06/2022 13:05:04","86605","12","task-s61q",NA,"22333514","wopxcyrw","6583401",NA,"complete",NA,NA,"computer","Desktop or Laptop","Mac OS 10.15.7","Safari 15.4","1680x1050","1680x998",NA,"An art exhibition game","4","Spreadsheet1",NA,NA,"BEGIN TASK",NA,NA,NA,NA,NA,NA,NA,NA,NA,"0","1","0",NA,NA,NA,NA,NA,NA,NA,NA,NA,NA,NA,NA,NA,NA,NA,NA,NA,NA,NA,NA,NA,NA,"wopxcyrw"
"210","2","1654603516034","07/06/2022 12:05:16","1654603515890","1","07/06/2022 13:05:15","86605","12","task-s61q",NA,"22333514","wopxcyrw","6583401",NA,"complete",NA,NA,"computer","Desktop or Laptop","Mac OS 10.15.7","Safari 15.4","1680x1050","1680x998",NA,"An art exhibition game","4","Spreadsheet1","Spreadsheet1","1","1","1","Screen 2","advancementZone","continue_button","11111",NA,NA,NA,NA,"0","1","0",NA,NA,NA,NA,NA,"Instructions",NA,NA,NA,NA,NA,NA,NA,NA,NA,NA,NA,NA,NA,NA,NA,NA,"wopxcyrw"
"211","3","1654603525632","07/06/2022 12:05:25","1654603525585","1","07/06/2022 13:05:25","86605","12","task-s61q",NA,"22333514","wopxcyrw","6583401",NA,"complete",NA,NA,"computer","Desktop or Laptop","Mac OS 10.15.7","Safari 15.4","1680x1050","1680x998",NA,"An art exhibition game","4","Spreadsheet1","Spreadsheet1","1","1","2","Screen 3","advancementZone","continue_button","9689",NA,NA,NA,NA,"0","1","0",NA,NA,NA,NA,NA,"Instructions",NA,NA,NA,NA,NA,NA,NA,NA,NA,NA,NA,NA,NA,NA,NA,NA,"wopxcyrw"
"212","4","1654603547017","07/06/2022 12:05:47","1654603546958","1","07/06/2022 13:05:46","86605","12","task-s61q",NA,"22333514","wopxcyrw","6583401",NA,"complete",NA,NA,"computer","Desktop or Laptop","Mac OS 10.15.7","Safari 15.4","1680x1050","1680x998",NA,"An art exhibition game","4","Spreadsheet1","Spreadsheet1","1","1","3","Screen 4","advancementZone","response_button_text","21365",NA,NA,"Take a screenshot","1","0","1","0",NA,NA,NA,NA,NA,"Instructions",NA,NA,NA,NA,NA,NA,NA,NA,NA,NA,NA,NA,NA,NA,NA,NA,"wopxcyrw"
"213","5","1654603558984","07/06/2022 12:05:58","1654603558939","1","07/06/2022 13:05:58","86605","12","task-s61q",NA,"22333514","wopxcyrw","6583401",NA,"complete",NA,NA,"computer","Desktop or Laptop","Mac OS 10.15.7","Safari 15.4","1680x1050","1680x998",NA,"An art exhibition game","4","Spreadsheet1","Spreadsheet1","1","1","4","Screen 5","advancementZone","continue_button","11975",NA,NA,NA,NA,"0","1","0",NA,NA,NA,NA,NA,"Instructions",NA,NA,NA,NA,NA,NA,NA,NA,NA,NA,NA,NA,NA,NA,NA,NA,"wopxcyrw"
"214","6","1654603559033","07/06/2022 12:05:59","1654603558942","1","07/06/2022 13:05:58","86605","12","task-s61q",NA,"22333514","wopxcyrw","6583401",NA,"complete",NA,NA,"computer","Desktop or Laptop","Mac OS 10.15.7","Safari 15.4","1680x1050","1680x998",NA,"An art exhibition game","4","Spreadsheet1",NA,NA,"END TASK",NA,NA,NA,NA,"54209",NA,NA,NA,NA,"0","1","0",NA,NA,NA,NA,NA,NA,NA,NA,NA,NA,NA,NA,NA,NA,NA,NA,NA,NA,NA,NA,NA,NA,"wopxcyrw"
"215","1","1654608927041","07/06/2022 13:35:27","1654608926930","1","07/06/2022 14:35:26","86605","12","task-s61q",NA,"22336394","wyly5896","6584100",NA,"complete",NA,NA,"computer","Desktop or Laptop","Mac OS 10.15.7","Safari 15.4","1680x1050","1680x998",NA,"An art exhibition game","4","Spreadsheet1",NA,NA,"BEGIN TASK",NA,NA,NA,NA,NA,NA,NA,NA,NA,"0","1","0",NA,NA,NA,NA,NA,NA,NA,NA,NA,NA,NA,NA,NA,NA,NA,NA,NA,NA,NA,NA,NA,NA,"wyly5896"
